name,time,accX,accY,accZ,gyroX,gyroY,gyroZ,magX,magY,magZ
IMU24,1695914242292000000,9.842562675476074,-0.08858545869588852,0.038307227194309235,0.0625,-0.125,-0.0625,-13.960000038146973,14.199999809265137,-174.46153259277344
IMU24,1695914242438000000,9.84495735168457,-0.1173158809542656,0.004788403399288654,-0.0625,0,0.125,-13.84000015258789,14.119999885559082,-174.6923065185547
IMU24,1695914242584000000,9.832985877990723,-0.08619125932455063,0.023942016065120697,0.0625,0,0,-13.880000114440918,14.319999694824219,-174.61538696289062
IMU24,1695914242633000000,9.84735107421875,-0.05267243832349777,0.019153613597154617,0,0,0,-13.880000114440918,14.119999885559082,-174.3076934814453
IMU24,1695914242682000000,9.842562675476074,-0.07422025501728058,0.031124621629714966,0.0625,-0.125,0,-13.800000190734863,13.920000076293945,-173.76922607421875
IMU24,1695914242780000000,9.816226959228516,-0.07661445438861847,0.016759412363171577,0,-0.1875,0,-13.84000015258789,14.239999771118164,-174.53846740722656
IMU24,1695914242926000000,9.832985877990723,-0.07422025501728058,-0.021547814831137657,0,-0.0625,0,-14.119999885559082,13.880000114440918,-174.53846740722656
IMU24,1695914242975000000,9.840168952941895,-0.11252747476100922,0.021547814831137657,-0.0625,-0.0625,-0.0625,-14.279999732971191,14.079999923706055,-174.38461303710938
IMU24,1695914243072000000,9.835380554199219,-0.08619125932455063,0.021547814831137657,0.0625,0,0.0625,-14.039999961853027,14.039999961853027,-174.84616088867188
IMU24,1695914243169000000,9.861716270446777,-0.031124621629714966,0.002394201699644327,0.0625,0.0625,0,-14.039999961853027,14.039999961853027,-174.6923065185547
IMU24,1695914243267000000,9.840168952941895,-0.06224924325942993,0.031124621629714966,0.0625,-0.125,0,-13.920000076293945,14.359999656677246,-174.6923065185547
IMU24,1695914243413000000,9.81143856048584,-0.09576806426048279,0.033518824726343155,0,0.0625,0.0625,-13.920000076293945,14.199999809265137,-173.92308044433594
IMU24,1695914243511000000,9.849745750427246,-0.06224924325942993,-0.016759412363171577,0.0625,-0.0625,0,-13.920000076293945,14.4399995803833,-174.15383911132812
IMU24,1695914243608000000,9.849745750427246,-0.08858545869588852,0.043095629662275314,-0.0625,0,0.0625,-13.640000343322754,14.15999984741211,-174.07691955566406
IMU24,1695914243754000000,9.859322547912598,-0.07422025501728058,0.004788403399288654,0,-0.0625,0,-13.960000038146973,14.319999694824219,-174.76922607421875
IMU24,1695914243803000000,9.818620681762695,-0.06464344263076782,0,0,0,0,-13.760000228881836,14.359999656677246,-174.76922607421875
IMU24,1695914243901000000,9.852139472961426,-0.0694318488240242,0.0071826050989329815,-0.0625,-0.0625,0,-13.920000076293945,14.199999809265137,-175.07691955566406
IMU24,1695914243998000000,9.840168952941895,-0.05506663769483566,0.0071826050989329815,0,0,0,-13.960000038146973,14.119999885559082,-174.38461303710938
IMU24,1695914244095000000,9.842562675476074,-0.08858545869588852,-0.009576806798577309,-0.0625,-0.125,-0.125,-13.880000114440918,14.039999961853027,-174.76922607421875
IMU24,1695914244193000000,9.84735107421875,-0.06703764945268631,0.023942016065120697,0.0625,-0.0625,0,-13.920000076293945,14.15999984741211,-174.6923065185547
IMU24,1695914244290000000,9.821015357971191,-0.05746084079146385,0.014365210197865963,0,-0.0625,-0.125,-13.960000038146973,14.079999923706055,-174.53846740722656
IMU24,1695914244389000000,9.842562675476074,-0.08619125932455063,0.004788403399288654,0,0,0.0625,-13.920000076293945,14.319999694824219,-174.61538696289062
IMU24,1695914244485000000,9.821015357971191,-0.09816227108240128,0.014365210197865963,0,0,0,-13.960000038146973,14.319999694824219,-174.38461303710938
IMU24,1695914244633000000,9.825803756713867,-0.08140285313129425,0.019153613597154617,0.0625,0.0625,0,-13.960000038146973,13.920000076293945,-174.53846740722656
IMU24,1695914244681000000,9.832985877990723,-0.09576806426048279,0.026336219161748886,0,0,-0.125,-13.960000038146973,14.239999771118164,-174.38461303710938
IMU24,1695914244778000000,9.828197479248047,-0.08379705995321274,0.028730420395731926,-0.0625,0,-0.0625,-13.920000076293945,14.119999885559082,-174.23077392578125
IMU24,1695914244876000000,9.840168952941895,-0.08140285313129425,0,0.0625,-0.125,-0.125,-13.800000190734863,14.119999885559082,-174.6923065185547
IMU24,1695914244974000000,9.832985877990723,-0.07182604819536209,0.011971008032560349,-0.0625,0,-0.0625,-13.760000228881836,14.239999771118164,-173.84616088867188
IMU24,1695914245071000000,9.816226959228516,-0.11252747476100922,0.035913024097681046,0,0.0625,-0.125,-13.84000015258789,14,-173.84616088867188
IMU24,1695914245168000000,9.823409080505371,-0.10295066982507706,0.002394201699644327,-0.0625,0.0625,0,-13.920000076293945,14.199999809265137,-174
IMU24,1695914245314000000,9.84495735168457,-0.12210428714752197,0,0.125,-0.0625,0.0625,-14.039999961853027,14.359999656677246,-174.61538696289062
IMU24,1695914245363000000,9.832985877990723,-0.10055647045373917,0.009576806798577309,-0.1875,0,0,-13.960000038146973,14.239999771118164,-174.53846740722656
IMU24,1695914245558000000,9.835380554199219,-0.06464344263076782,0.009576806798577309,-0.0625,0,-0.1875,-13.760000228881836,14.359999656677246,-174.38461303710938
IMU24,1695914245607000000,9.830592155456543,-0.043095629662275314,0.019153613597154617,-0.125,0,0,-13.920000076293945,14.079999923706055,-174.53846740722656
IMU24,1695914245704000000,9.84495735168457,-0.05746084079146385,0,-0.125,-0.0625,0,-13.920000076293945,14.479999542236328,-174.15383911132812
IMU24,1695914245802000000,9.832985877990723,-0.043095629662275314,-0.009576806798577309,0.0625,-0.0625,0,-13.600000381469727,14.239999771118164,-174.07691955566406
IMU24,1695914245899000000,9.849745750427246,-0.07422025501728058,0,-0.1875,-0.125,-0.0625,-13.800000190734863,14.4399995803833,-174.3076934814453
IMU24,1695914245997000000,9.81143856048584,-0.06224924325942993,0.035913024097681046,-0.125,-0.0625,0.0625,-13.720000267028809,14.239999771118164,-174.84616088867188
IMU24,1695914246094000000,9.883264541625977,-0.05746084079146385,0.014365210197865963,-0.125,-0.125,0.125,-13.760000228881836,14.15999984741211,-174.46153259277344
IMU24,1695914246192000000,9.873687744140625,0,-0.011971008032560349,0,0,0.125,-13.84000015258789,14.239999771118164,-174.23077392578125
IMU24,1695914246289000000,9.854534149169922,-0.07900865375995636,0,0,-0.0625,-0.125,-14.039999961853027,14.319999694824219,-174
IMU24,1695914246387000000,9.856927871704102,-0.023942016065120697,0.023942016065120697,-0.0625,-0.0625,0.0625,-13.880000114440918,14.079999923706055,-174
IMU24,1695914246484000000,9.864110946655273,-0.05746084079146385,0.031124621629714966,0,0,0,-13.800000190734863,14.119999885559082,-174.38461303710938
IMU24,1695914246582000000,9.832985877990723,-0.038307227194309235,0.05985504016280174,0,0,0,-13.800000190734863,14.199999809265137,-174.07691955566406
IMU24,1695914246680000000,9.825803756713867,-0.08379705995321274,0.021547814831137657,0,-0.0625,-0.125,-13.920000076293945,14.239999771118164,-174.84616088867188
IMU24,1695914246778000000,9.84735107421875,-0.05746084079146385,0.014365210197865963,0,0,0.0625,-13.84000015258789,14.279999732971191,-174.61538696289062
IMU24,1695914246875000000,9.825803756713867,-0.040701426565647125,-0.019153613597154617,0,0.0625,0.1875,-13.84000015258789,14.15999984741211,-174.3076934814453
IMU24,1695914247020000000,9.835380554199219,-0.05746084079146385,0.05506663769483566,0.1875,0,-0.0625,-13.960000038146973,14.359999656677246,-174.38461303710938
IMU24,1695914247069000000,9.859322547912598,-0.08140285313129425,0.002394201699644327,0.125,-0.125,-0.0625,-13.84000015258789,14.039999961853027,-174.46153259277344
IMU24,1695914247168000000,9.840168952941895,-0.05027823522686958,0.028730420395731926,-0.1875,0,0.0625,-13.760000228881836,13.800000190734863,-174.76922607421875
IMU24,1695914247265000000,9.828197479248047,-0.07900865375995636,0.011971008032560349,-0.0625,0,0,-14.039999961853027,14.119999885559082,-174.3076934814453
IMU24,1695914247410000000,9.842562675476074,-0.05267243832349777,0.019153613597154617,0.0625,0,0,-14.079999923706055,14.199999809265137,-174.07691955566406
IMU24,1695914247509000000,9.809043884277344,-0.06464344263076782,0.019153613597154617,-0.125,0.0625,-0.125,-14.079999923706055,14.359999656677246,-174.46153259277344
IMU24,1695914247605000000,9.84735107421875,-0.06224924325942993,0.05985504016280174,0,0,0,-13.920000076293945,13.960000038146973,-174.07691955566406
IMU24,1695914247703000000,9.84495735168457,-0.08619125932455063,-0.002394201699644327,0,0,-0.0625,-13.800000190734863,14.119999885559082,-174.07691955566406
IMU24,1695914247801000000,9.821015357971191,-0.05985504016280174,0.05746084079146385,0,-0.0625,-0.0625,-13.880000114440918,13.880000114440918,-174.23077392578125
IMU24,1695914247947000000,9.828197479248047,-0.0694318488240242,0.011971008032560349,0,-0.1875,0,-13.880000114440918,14,-174.07691955566406
IMU24,1695914247995000000,9.832985877990723,-0.0694318488240242,0.05985504016280174,-0.1875,0,0,-13.880000114440918,13.960000038146973,-174.38461303710938
IMU24,1695914248093000000,9.77791976928711,-0.0933738648891449,0.028730420395731926,0,0,0,-13.920000076293945,14.039999961853027,-174.46153259277344
IMU24,1695914248191000000,9.818620681762695,-0.06224924325942993,0.021547814831137657,0,0.0625,0.0625,-13.800000190734863,13.880000114440918,-174.53846740722656
IMU24,1695914248288000000,9.88086986541748,-0.09576806426048279,0.021547814831137657,-0.0625,0.125,0,-13.920000076293945,13.640000343322754,-174.61538696289062
IMU24,1695914248435000000,9.861716270446777,-0.05746084079146385,0.038307227194309235,0,0,0,-13.880000114440918,13.920000076293945,-174.23077392578125
IMU24,1695914248483000000,9.840168952941895,-0.07661445438861847,0.011971008032560349,0.0625,0,0.0625,-13.960000038146973,14,-174.92308044433594
IMU24,1695914248581000000,9.854534149169922,-0.05267243832349777,0.031124621629714966,0.0625,-0.0625,0,-13.880000114440918,14.15999984741211,-174.92308044433594
IMU24,1695914248678000000,9.832985877990723,-0.09576806426048279,0.019153613597154617,0,-0.1875,0,-14,13.880000114440918,-174.76922607421875
IMU24,1695914248824000000,9.830592155456543,-0.08140285313129425,0.021547814831137657,-0.0625,-0.125,0.0625,-13.84000015258789,14.15999984741211,-173.76922607421875
IMU24,1695914248873000000,9.840168952941895,-0.10055647045373917,0.004788403399288654,0.0625,-0.0625,0,-13.84000015258789,13.920000076293945,-174.46153259277344
IMU24,1695914248971000000,9.818620681762695,-0.08619125932455063,0,0,0.0625,-0.1875,-13.880000114440918,13.880000114440918,-174.53846740722656
IMU24,1695914249068000000,9.842562675476074,-0.07182604819536209,0.011971008032560349,0.125,0,0,-13.800000190734863,13.880000114440918,-174.92308044433594
IMU24,1695914249166000000,9.842562675476074,-0.0933738648891449,0.011971008032560349,-0.125,0.0625,0,-13.720000267028809,13.84000015258789,-174.46153259277344
IMU24,1695914249312000000,9.832985877990723,-0.09576806426048279,0.002394201699644327,-0.0625,0,0.0625,-13.800000190734863,13.960000038146973,-175.15383911132812
IMU24,1695914249409000000,9.84735107421875,-0.07182604819536209,0.021547814831137657,0,-0.125,-0.0625,-13.920000076293945,13.760000228881836,-174.92308044433594
IMU24,1695914249507000000,9.825803756713867,-0.08140285313129425,0.07182604819536209,0,0,-0.0625,-13.720000267028809,13.680000305175781,-174.6923065185547
IMU24,1695914249653000000,9.816226959228516,-0.08140285313129425,0.033518824726343155,0,-0.0625,0,-13.680000305175781,13.800000190734863,-174.15383911132812
IMU24,1695914249702000000,9.804255485534668,-0.1149216815829277,-0.009576806798577309,0,0,0,-13.880000114440918,13.84000015258789,-174.15383911132812
IMU24,1695914249799000000,9.832985877990723,-0.08140285313129425,0.002394201699644327,0,0,0,-13.760000228881836,13.920000076293945,-173.84616088867188
IMU24,1695914249897000000,9.823409080505371,-0.08619125932455063,0.002394201699644327,0,-0.0625,-0.125,-13.760000228881836,13.920000076293945,-174.15383911132812
IMU24,1695914249994000000,9.780313491821289,-0.09576806426048279,0.016759412363171577,0,0,0,-13.479999542236328,13.920000076293945,-173.76922607421875
IMU24,1695914250092000000,9.81143856048584,-0.09576806426048279,0.0454898327589035,0,-0.3125,0,-13.680000305175781,13.640000343322754,-173.84616088867188
IMU24,1695914250190000000,9.809043884277344,-0.090979665517807,0.05267243832349777,-0.1875,0,0,-13.800000190734863,13.119999885559082,-173.61538696289062
IMU24,1695914250287000000,9.823409080505371,-0.09576806426048279,0.035913024097681046,0,0,0,-13.920000076293945,13.199999809265137,-174.07691955566406
IMU24,1695914250385000000,9.840168952941895,-0.05506663769483566,0.009576806798577309,0,0,0,-13.760000228881836,13.279999732971191,-173.61538696289062
IMU24,1695914250482000000,9.825803756713867,-0.06464344263076782,0.023942016065120697,0,-0.125,-0.0625,-13.960000038146973,13.239999771118164,-173.38461303710938
IMU24,1695914250580000000,9.837774276733398,-0.033518824726343155,0.014365210197865963,0,0,-0.0625,-13.800000190734863,13.319999694824219,-173.3076934814453
IMU24,1695914250677000000,9.828197479248047,-0.040701426565647125,0.0071826050989329815,0.0625,0.125,0.1875,-13.680000305175781,13.359999656677246,-172.92308044433594
IMU24,1695914250775000000,9.830592155456543,-0.05985504016280174,0.035913024097681046,0,0,0.125,-13.5600004196167,13.479999542236328,-173.38461303710938
IMU24,1695914250873000000,9.835380554199219,-0.05267243832349777,0.035913024097681046,0.0625,0.125,0,-13.600000381469727,13.319999694824219,-174.6923065185547
IMU24,1695914250970000000,9.859322547912598,-0.07182604819536209,0.021547814831137657,-0.25,0,-0.0625,-13.399999618530273,13.15999984741211,-174.46153259277344
IMU24,1695914251116000000,9.859322547912598,-0.05506663769483566,0.023942016065120697,0,-0.0625,0.0625,-13.5600004196167,13.199999809265137,-173.84616088867188
IMU24,1695914251213000000,9.864110946655273,-0.047884032130241394,0.023942016065120697,0.0625,0,0,-13.640000343322754,13.279999732971191,-174
IMU24,1695914251312000000,9.81143856048584,-0.05985504016280174,0.011971008032560349,-0.125,0.0625,0,-13.760000228881836,13.279999732971191,-173.3076934814453
IMU24,1695914251408000000,9.849745750427246,-0.06464344263076782,0.014365210197865963,0,-0.1875,0,-13.760000228881836,13.359999656677246,-173.76922607421875
IMU24,1695914251505000000,9.825803756713867,-0.06464344263076782,0.004788403399288654,-0.0625,0.0625,0,-13.84000015258789,13.199999809265137,-174.46153259277344
IMU24,1695914251701000000,9.842562675476074,-0.06224924325942993,0.016759412363171577,-0.0625,0,-0.1875,-13.800000190734863,13.520000457763672,-174.15383911132812
IMU24,1695914251705000000,9.804255485534668,-0.06703764945268631,0.019153613597154617,-0.0625,0,-0.125,-13.880000114440918,13.520000457763672,-174.07691955566406
IMU24,1695914251799000000,9.84495735168457,-0.07182604819536209,0.026336219161748886,0.0625,0,0,-13.760000228881836,13.319999694824219,-174.07691955566406
IMU24,1695914251896000000,9.830592155456543,-0.05985504016280174,0.028730420395731926,0.0625,0,0.0625,-13.960000038146973,13.640000343322754,-174.38461303710938
IMU24,1695914251993000000,9.818620681762695,-0.06224924325942993,0.009576806798577309,0,0,0,-13.720000267028809,13.800000190734863,-173.46153259277344
IMU24,1695914252091000000,9.852139472961426,-0.0694318488240242,-0.004788403399288654,-0.125,0,0,-13.920000076293945,13.5600004196167,-173.61538696289062
IMU24,1695914252189000000,9.818620681762695,-0.07900865375995636,-0.004788403399288654,0,-0.0625,0,-14,13.760000228881836,-174.07691955566406
IMU24,1695914252286000000,9.84495735168457,-0.05506663769483566,0.026336219161748886,-0.0625,0,0,-14.079999923706055,13.5600004196167,-174.3076934814453
IMU24,1695914252384000000,9.835380554199219,-0.07900865375995636,0.028730420395731926,-0.0625,0.0625,-0.0625,-14.039999961853027,13.640000343322754,-173.6923065185547
IMU24,1695914252530000000,9.818620681762695,-0.0694318488240242,0.038307227194309235,0,0,0.0625,-14.279999732971191,13.479999542236328,-173.92308044433594
IMU24,1695914252579000000,9.828197479248047,-0.06703764945268631,0.047884032130241394,0.0625,-0.125,-0.25,-14.079999923706055,13.319999694824219,-174.23077392578125
IMU24,1695914252676000000,9.823409080505371,-0.06464344263076782,0.014365210197865963,-0.125,0,0.1875,-14.119999885559082,13.4399995803833,-174
IMU24,1695914252774000000,9.830592155456543,-0.10773907601833344,0.021547814831137657,-0.0625,0,-0.1875,-14.119999885559082,13.720000267028809,-174.38461303710938
IMU24,1695914252920000000,9.84495735168457,-0.08379705995321274,0.002394201699644327,0,0,-0.0625,-14.039999961853027,13.760000228881836,-174.76922607421875
IMU24,1695914253017000000,9.854534149169922,-0.06464344263076782,-0.004788403399288654,0,0,0,-14.279999732971191,13.960000038146973,-174.23077392578125
IMU24,1695914253114000000,9.849745750427246,-0.05746084079146385,0.011971008032560349,0,0,0,-14.199999809265137,13.720000267028809,-174.23077392578125
IMU24,1695914253212000000,9.809043884277344,-0.05267243832349777,0.019153613597154617,-0.0625,0,0.0625,-14.319999694824219,13.5600004196167,-174.53846740722656
IMU24,1695914253309000000,9.828197479248047,-0.035913024097681046,0.033518824726343155,0,0,-0.1875,-14.039999961853027,14.039999961853027,-173.23077392578125
IMU24,1695914253407000000,9.842562675476074,-0.07900865375995636,-0.016759412363171577,-0.0625,0,-0.0625,-13.680000305175781,14.119999885559082,-173.3076934814453
IMU24,1695914253504000000,9.801861763000488,-0.07900865375995636,0.014365210197865963,0,0.0625,0,-13.760000228881836,14.279999732971191,-173.07691955566406
IMU24,1695914253602000000,9.849745750427246,-0.06224924325942993,0.026336219161748886,0.125,0,0,-14,14.359999656677246,-172.76922607421875
IMU24,1695914253699000000,9.832985877990723,-0.05027823522686958,-0.0071826050989329815,0,-0.125,-0.125,-14.079999923706055,14.239999771118164,-173.53846740722656
IMU24,1695914253797000000,9.861716270446777,-0.11971008032560349,0.021547814831137657,0,-0.25,-0.1875,-13.920000076293945,14.680000305175781,-173.6923065185547
IMU24,1695914253895000000,9.737217903137207,-0.22744916379451752,0.031124621629714966,0,-0.0625,-0.25,-13.880000114440918,14.399999618530273,-174.15383911132812
IMU24,1695914253992000000,9.830592155456543,-0.0933738648891449,-0.019153613597154617,0,0,-0.375,-13.600000381469727,14.279999732971191,-173.23077392578125
IMU24,1695914254091000000,10.055646896362305,-0.19393032789230347,-0.011971008032560349,0,-0.125,-0.0625,-13.680000305175781,14.680000305175781,-173.76922607421875
IMU24,1695914254187000000,9.703699111938477,-0.09576806426048279,0.023942016065120697,0,-0.1875,-0.0625,-13.600000381469727,14.479999542236328,-174.15383911132812
IMU24,1695914254285000000,10.165780067443848,0.19871874153614044,0.08858545869588852,0,-0.1875,-0.1875,-13.800000190734863,14.079999923706055,-174.3076934814453
IMU24,1695914254383000000,9.488221168518066,-0.3974374830722809,0.06224924325942993,0.125,-0.1875,0.375,-13.960000038146973,14,-173.61538696289062
IMU24,1695914254480000000,9.363722801208496,-0.05746084079146385,-0.047884032130241394,0.1875,-0.125,1,-13.800000190734863,14.119999885559082,-174.23077392578125
IMU24,1695914254578000000,10.228029251098633,0.1173158809542656,-0.05746084079146385,0.3125,-0.25,0.4375,-13.720000267028809,14.079999923706055,-174.6923065185547
IMU24,1695914254723000000,10.113107681274414,0.20350714027881622,0.21787235140800476,0.25,-0.125,0.0625,-13.720000267028809,14.279999732971191,-174.46153259277344
IMU24,1695914254821000000,9.945513725280762,-0.363918662071228,0.22266075015068054,-0.0625,0.1875,0.4375,-13.600000381469727,14.359999656677246,-173.92308044433594
IMU24,1695914254918000000,9.8784761428833,-0.26575639843940735,0.019153613597154617,-0.0625,0.0625,0.4375,-13.920000076293945,14.199999809265137,-174.38461303710938
IMU24,1695914255064000000,9.639056205749512,-0.2561795711517334,0.026336219161748886,-0.1875,0,0,-13.600000381469727,14.039999961853027,-174.53846740722656
IMU24,1695914255113000000,9.497797966003418,0.1364694982767105,0.06703764945268631,-0.125,0,-0.5,-13.640000343322754,14,-173.84616088867188
IMU24,1695914255210000000,9.715670585632324,-0.16998831927776337,-0.15801730751991272,-0.0625,0,0.0625,-13.4399995803833,14.119999885559082,-174.38461303710938
IMU24,1695914255308000000,9.809043884277344,0.009576806798577309,-0.011971008032560349,-0.125,0,0,-13.520000457763672,13.760000228881836,-174.46153259277344
IMU24,1695914255406000000,10.187328338623047,-0.1149216815829277,0.19632454216480255,-0.0625,0,0.1875,-13.760000228881836,14,-174.3076934814453
IMU24,1695914255504000000,9.916783332824707,-0.026336219161748886,-0.011971008032560349,0.0625,-0.0625,-0.0625,-13.680000305175781,13.84000015258789,-174.38461303710938
IMU24,1695914255602000000,10.02452278137207,-0.1173158809542656,0.047884032130241394,0.125,0.1875,0,-13.760000228881836,13.84000015258789,-174.61538696289062
IMU24,1695914255699000000,9.897629737854004,-0.12449848651885986,-0.011971008032560349,0.125,-0.0625,-0.0625,-13.720000267028809,13.880000114440918,-174.38461303710938
IMU24,1695914255797000000,9.466672897338867,-0.29448679089546204,-0.1173158809542656,-0.125,0,-4,-35.599998474121094,-14.5600004196167,-121.84615325927734
IMU24,1695914255942000000,9.497797966003418,-0.30885201692581177,0.1149216815829277,-0.0625,0.0625,-13.1875,-35.7599983215332,-14.760000228881836,-122
IMU24,1695914255991000000,9.832985877990723,0.021547814831137657,0.043095629662275314,-0.25,0.3125,-21.5625,-35.91999816894531,-15.119999885559082,-121.07691955566406
IMU24,1695914256088000000,9.900023460388184,0.49559974670410156,0.13168108463287354,-0.25,0.125,-31.5625,-36.52000045776367,-15.199999809265137,-121.07691955566406
IMU24,1695914256186000000,8.619126319885254,0.6320692300796509,0.08619125932455063,-0.3125,0.125,-41.25,-37.84000015258789,-16.8799991607666,-121.46154022216797
IMU24,1695914256284000000,9.658209800720215,2.6575639247894287,-0.17477671802043915,-0.5,0.125,-36.5625,-38.400001525878906,-14.920000076293945,-121.76923370361328
IMU24,1695914256381000000,9.346962928771973,3.0095114707946777,0.12928688526153564,-0.375,0.3125,-27.0625,-40.20000076293945,-17.440000534057617,-122.30769348144531
IMU24,1695914256479000000,9.528923034667969,3.445256233215332,-0.047884032130241394,-0.5625,0.3125,-17.5625,-41.279998779296875,-13.880000114440918,-123.07691955566406
IMU24,1695914256576000000,9.464279174804688,3.7828385829925537,0.06464344263076782,-0.3125,0,-8.3125,-42.08000183105469,-11.5600004196167,-123.61538696289062
IMU24,1695914256722000000,9.35893440246582,3.670311212539673,0.0071826050989329815,-0.375,-0.375,0.9375,-42.599998474121094,-12.5600004196167,-123.84615325927734
IMU24,1695914256819000000,9.526528358459473,3.5410242080688477,0.22744916379451752,-4,-1.375,4.8125,-42.84000015258789,-11.279999732971191,-123.76923370361328
IMU24,1695914256917000000,9.27034854888916,3.1723172664642334,0.08858545869588852,-7.625,-2.5625,6.8125,-43.08000183105469,-11.079999923706055,-123.30769348144531
IMU24,1695914257014000000,9.284713745117188,3.093308448791504,0.17956513166427612,-11.5625,-4.0625,9.5,-42.7599983215332,-10.84000015258789,-122.84615325927734
IMU24,1695914257112000000,9.703699111938477,2.80361008644104,0.08140285313129425,-14.75,-4.6875,11.8125,-42.52000045776367,-10.199999809265137,-120.38461303710938
IMU24,1695914257209000000,9.162610054016113,2.3319523334503174,0.325611412525177,-18.6875,-5.4375,14.4375,-41.599998474121094,-8.520000457763672,-115.61538696289062
IMU24,1695914257307000000,9.622296333312988,2.293645143508911,0.13407529890537262,-22.125,-5.625,18,-41,-7.800000190734863,-114.38461303710938
IMU24,1695914257404000000,9.272743225097656,2.4181437492370605,0.2992752194404602,-26.3125,-6,21.125,-39.20000076293945,-5.28000020980835,-106.38461303710938
IMU24,1695914257502000000,9.366116523742676,1.9177554845809937,0.11252747476100922,-30.0625,-5.4375,23.4375,-38.31999969482422,-4.519999980926514,-103.38461303710938
IMU24,1695914257600000000,9.727641105651855,1.5705963373184204,0.13407529890537262,-30.125,-4.125,24,-35.47999954223633,-1.0800000429153442,-91.46154022216797
IMU24,1695914257697000000,9.440337181091309,0.9840168952941895,-0.06464344263076782,-26.5625,-2.875,21.3125,-31.559999465942383,1.3200000524520874,-78.23076629638672
IMU24,1695914257795000000,9.713275909423828,0.7685387134552002,0.2513911724090576,-22.4375,-1.5,18.5625,-30.479999542236328,0.6800000071525574,-77.84615325927734
IMU24,1695914257893000000,9.2033109664917,0.5027823448181152,-0.12928688526153564,-18.6875,-0.3125,14.9375,-26.84000015258789,-1,-70.61538696289062
IMU24,1695914257990000000,9.849745750427246,0.2106897532939911,-0.038307227194309235,-15,-0.4375,12.375,-12.84000015258789,-20.68000030517578,-78.69230651855469
IMU24,1695914258087000000,10.041281700134277,0.09816227108240128,-0.19393032789230347,-11,0.125,9.375,102.5999984741211,-72.27999877929688,-192.23077392578125
IMU24,1695914258185000000,9.940725326538086,0.0071826050989329815,-0.06464344263076782,-7.625,0.125,5.6875,380.7200012207031,-53.959999084472656,-95.23076629638672
IMU24,1695914258283000000,9.782708168029785,-0.15562310814857483,-0.06464344263076782,-3.75,0.0625,3.0625,-1255.52001953125,-568.3200073242188,2520.53857421875
IMU24,1695914258428000000,9.871293067932129,-0.2106897532939911,-0.14844051003456116,0.375,-0.1875,0.5,-810.8800048828125,-72.63999938964844,-537.7692260742188
IMU24,1695914258526000000,9.339780807495117,-0.6057330369949341,-0.19153612852096558,-1.5625,0.0625,-12.3125,-744.47998046875,73.72000122070312,-232.92308044433594
IMU24,1695914258623000000,9.514557838439941,-0.22505494952201843,0.07661445438861847,-4.0625,0.0625,-25.6875,735.0800170898438,350.3599853515625,517.3846435546875
IMU24,1695914258721000000,9.323020935058594,0.22744916379451752,0.22744916379451752,-6.375,-0.25,-38.8125,442.9599914550781,197.27999877929688,411.76922607421875
IMU24,1695914258818000000,9.560047149658203,0.8188169598579407,0.24420857429504395,-8.875,-0.875,-51.75,-191.83999633789062,256.9599914550781,-335.8461608886719
IMU24,1695914258916000000,9.703699111938477,2.6623523235321045,-0.17477671802043915,-7.5,-0.875,-40.125,-82.55999755859375,176.44000244140625,139.3076934814453
IMU24,1695914259013000000,10.02452278137207,3.021482467651367,-0.033518824726343155,-4.875,-1.375,-26.875,0.1599999964237213,129.47999572753906,199.3076934814453
IMU24,1695914259111000000,9.90241813659668,3.6607344150543213,0.011971008032560349,-2.25,-0.75,-13.5,33.279998779296875,101.04000091552734,291.6153869628906
IMU24,1695914259209000000,9.823409080505371,3.603273391723633,-0.043095629662275314,0.125,-0.1875,-0.5,33.959999084472656,99.04000091552734,310.30767822265625
IMU24,1695914259306000000,9.63187313079834,3.2992098331451416,0.0933738648891449,0,-0.4375,9.3125,34.279998779296875,98.76000213623047,316.1538391113281
IMU24,1695914259404000000,9.804255485534668,3.2848446369171143,-0.023942016065120697,0.375,-0.25,19.625,34.7599983215332,99.55999755859375,318.30767822265625
IMU24,1695914259501000000,9.81383228302002,3.0813374519348145,0.05027823522686958,0.6875,-0.375,29.9375,35.36000061035156,100.5999984741211,317.3846130371094
IMU24,1695914259599000000,9.354146003723145,2.561795711517334,0.019153613597154617,0.5,-0.3125,40.4375,36.2400016784668,102.36000061035156,317.6153869628906
IMU24,1695914259696000000,9.385270118713379,1.9608511924743652,0.0454898327589035,1.3125,-0.375,50.9375,37.91999816894531,105.12000274658203,317.30767822265625
IMU24,1695914259794000000,9.658209800720215,1.3766659498214722,0.05506663769483566,0.8125,-0.375,60.5625,72.5199966430664,174.0399932861328,179.76922607421875
IMU24,1695914259891000000,9.32780933380127,-0.5434837937355042,-0.002394201699644327,1.0625,-0.5625,54.75,51.439998626708984,181.83999633789062,147.84616088867188
IMU24,1695914259989000000,8.96389102935791,-1.316810965538025,-0.23942016065120697,0.875,-0.375,44.1875,53.91999816894531,184.67999267578125,147.53846740722656
IMU24,1695914260086000000,8.774748802185059,-2.8826189041137695,0.040701426565647125,1.125,-0.5,34.4375,27.719999313354492,174.16000366210938,148.92308044433594
IMU24,1695914260232000000,8.961496353149414,-2.6862943172454834,0.011971008032560349,0.5,-0.25,23.9375,13,163.32000732421875,154.84616088867188
IMU24,1695914260330000000,9.208099365234375,-3.270479440689087,0.15322890877723694,0.25,-0.3125,13.3125,14.319999694824219,164.63999938964844,153.76922607421875
IMU24,1695914260427000000,8.975861549377441,-3.5194764137268066,0.0454898327589035,0.3125,-0.1875,3.1875,7.28000020980835,158,157.53846740722656
IMU24,1695914260525000000,9.694122314453125,-3.3231518268585205,0.08858545869588852,6.4375,-2.5,1,5.159999847412109,155.83999633789062,159.38461303710938
IMU24,1695914260622000000,9.370904922485352,-3.134010076522827,-0.27054479718208313,16.0625,-5.625,-0.3125,5.28000020980835,156.0800018310547,158.92308044433594
IMU24,1695914260720000000,9.20091724395752,-3.1914708614349365,-0.24420857429504395,26.25,-9.125,-0.75,4.559999942779541,154.8000030517578,158.07691955566406
IMU24,1695914260817000000,9.215282440185547,-3.3710360527038574,-0.22744916379451752,35.125,-12.5,-1.3125,4.920000076293945,155.32000732421875,156.46153259277344
IMU24,1695914260915000000,8.793902397155762,-3.026270866394043,0.047884032130241394,45.375,-15.75,-0.9375,4.400000095367432,153.0800018310547,152.07691955566406
IMU24,1695914261012000000,9.6989107131958,-3.112462043762207,-0.529118537902832,54.625,-18.875,-1,2.9200000762939453,147.16000366210938,139
IMU24,1695914261110000000,9.655815124511719,-2.865859270095825,-0.24899697303771973,64.1875,-22.5,-0.8125,3.119999885559082,148.36000061035156,134.38461303710938
IMU24,1695914261208000000,8.87291145324707,-2.693476915359497,-0.11013327538967133,74.375,-25.4375,-1.1875,-0.6000000238418579,138.1199951171875,112.46154022216797
IMU24,1695914261305000000,8.848969459533691,-2.3726539611816406,0.15322890877723694,77,-27.25,-0.9375,-5.800000190734863,123.04000091552734,86.76923370361328
IMU24,1695914261403000000,8.920795440673828,-2.8371288776397705,-0.15562310814857483,76.9375,-26.5625,-1.4375,-6.199999809265137,123.08000183105469,78.76923370361328
IMU24,1695914261500000000,9.536105155944824,-2.5689783096313477,0.08379705995321274,77.0625,-27.25,-1.375,-11.960000038146973,108.12000274658203,54.30769348144531
IMU24,1695914261597000000,9.188945770263672,-2.801215887069702,0.009576806798577309,76.75,-26.4375,-1.5625,-16.760000228881836,96.04000091552734,35.53845977783203
IMU24,1695914261695000000,9.157821655273438,-2.6408045291900635,0.1149216815829277,76.8125,-26.875,-1,-17.31999969482422,94.4000015258789,29.384614944458008
IMU24,1695914261841000000,10.125079154968262,-3.0980968475341797,0.3280056416988373,68.9375,-24.125,-1.3125,-21.639999389648438,83.80000305175781,15
IMU24,1695914261938000000,8.592789649963379,-3.134010076522827,0.3495534360408783,59.4375,-21,-0.8125,-22.280000686645508,81.5999984741211,10.538461685180664
IMU24,1695914262036000000,9.801861763000488,-3.0861258506774902,0.40222588181495667,49.5625,-17.125,-0.6875,-25.479999542236328,73.5199966430664,0.6153846383094788
IMU24,1695914262133000000,9.473855972290039,-3.155557870864868,0.14365209639072418,40.0625,-13.875,-0.5,-27.68000030517578,68.31999969482422,-6.846153736114502
IMU24,1695914262231000000,9.191340446472168,-3.1531636714935303,0.325611412525177,30.5625,-10.6875,-0.25,-28.719999313354492,66.23999786376953,-9.076923370361328
IMU24,1695914262377000000,9.555258750915527,-3.069366455078125,0.3232172131538391,20.625,-6.8125,-0.25,-30,62.959999084472656,-12.230769157409668
IMU24,1695914262426000000,9.272743225097656,-3.088520050048828,0.33039984107017517,11.0625,-3.9375,-0.1875,-30.559999465942383,60.47999954223633,-15
IMU24,1695914262523000000,9.277531623840332,-3.1507694721221924,0.22505494952201843,1.5,-0.5625,0,-30.8799991607666,59.68000030517578,-14.84615421295166
IMU24,1695914262621000000,9.078812599182129,-3.3638532161712646,0.08619125932455063,-1,0.625,-7.625,-31.639999389648438,58.84000015258789,-15.615385055541992
IMU24,1695914262719000000,9.035717010498047,-3.28963303565979,0.1604115068912506,-3.1875,1.25,-19.25,-32.79999923706055,57.880001068115234,-14.923076629638672
IMU24,1695914262816000000,8.9064302444458,-2.827552080154419,0.07900865375995636,-4.8125,1.6875,-30.0625,-34.279998779296875,55.959999084472656,-16.461538314819336
IMU24,1695914262914000000,9.433154106140137,-2.3702597618103027,0.16519992053508759,-6.9375,1.625,-40.75,-36.439998626708984,52.040000915527344,-18.461538314819336
IMU24,1695914263012000000,9.224859237670898,-1.5275006294250488,0.3974374830722809,-8.875,1.125,-51.4375,-37.2400016784668,46.52000045776367,-22.923076629638672
IMU24,1695914263109000000,8.868123054504395,-0.8020575642585754,0.4213795065879822,-9.875,-0.125,-59.1875,-38.20000076293945,39.84000015258789,-31.538461685180664
IMU24,1695914263206000000,10.08437728881836,0.8068459630012512,0.07661445438861847,-9,0.125,-48.375,-38.439998626708984,24.600000381469727,-53.38461685180664
IMU24,1695914263304000000,9.576807022094727,1.7477672100067139,-0.014365210197865963,-6.3125,-0.625,-37.5625,-23,-6.559999942779541,-112.61538696289062
IMU24,1695914263401000000,10.132261276245117,2.1978771686553955,-0.1604115068912506,-4.625,-0.5,-26.5625,32.63999938964844,-22.15999984741211,-151.38461303710938
IMU24,1695914263499000000,9.715670585632324,2.5737667083740234,-0.1843535304069519,-2.625,-0.25,-16.5625,148.1999969482422,-9.600000381469727,-140.61538696289062
IMU24,1695914263596000000,9.964667320251465,2.7676970958709717,-0.1149216815829277,-0.8125,-0.25,-5.0625,-800.6799926757812,1261.6400146484375,-2520.615478515625
IMU24,1695914263742000000,9.885658264160156,2.449268341064453,0.48123452067375183,-2.8125,-0.625,3.375,-1310.719970703125,388.32000732421875,-1345.6922607421875
IMU24,1695914263840000000,9.737217903137207,2.2649147510528564,0.28969839215278625,-7.25,-1.75,13.75,-1310.719970703125,1292.47998046875,2461.15380859375
IMU24,1695914263937000000,9.66539192199707,1.944091796875,0.2777273952960968,-13.0625,-2.8125,22.875,-49.2400016784668,1239.43994140625,-2520.615478515625
IMU24,1695914264084000000,10.046070098876953,1.8483237028121948,0.040701426565647125,-18.1875,-3,32.0625,313.1199951171875,183.60000610351562,-118.30769348144531
IMU24,1695914264181000000,10.42435359954834,1.4891934394836426,0.0694318488240242,-23.9375,-2.5,41,-1310.719970703125,1285.6400146484375,-1030.3077392578125
IMU24,1695914264230000000,10.33098030090332,0.4118026793003082,0.22505494952201843,-29.5,-0.25,49.9375,496,-179.27999877929688,-2520.615478515625
IMU24,1695914264327000000,10.002974510192871,-0.19632454216480255,-0.8044517636299133,-28.25,1.6875,48.0625,396.9599914550781,-137.0800018310547,-1683.3077392578125
IMU24,1695914264426000000,9.332597732543945,-1.1348515748977661,-0.3711012601852417,-22.5,3.5,38.125,-268.79998779296875,-107.87999725341797,-276.4615478515625
IMU24,1695914264523000000,8.944737434387207,-1.5945383310317993,-0.3734954595565796,-17.1875,3.8125,29.6875,-119.12000274658203,-44.7599983215332,-59
IMU24,1695914264620000000,9.521739959716797,-2.2816741466522217,-0.2346317619085312,-11.8125,2.625,21.125,-79.27999877929688,-23.200000762939453,-50.07692337036133
IMU24,1695914264718000000,9.30386734008789,-2.3295581340789795,-0.22744916379451752,-6.625,1.8125,12.25,-69.83999633789062,-16.200000762939453,-53.53845977783203
IMU24,1695914264816000000,9.514557838439941,-2.6384103298187256,-0.2801215946674347,-1.4375,0.4375,3.4375,-67.27999877929688,-13.600000381469727,-55
IMU24,1695914264913000000,9.457096099853516,-2.7700912952423096,0.19393032789230347,0,-0.25,-1.4375,-67.16000366210938,-13.15999984741211,-55.230770111083984
IMU24,1695914265010000000,9.421183586120605,-2.693476915359497,-0.040701426565647125,0.375,-0.1875,-2.4375,-66.76000213623047,-13.039999961853027,-55.30769348144531
IMU24,1695914265156000000,9.409212112426758,-2.7317841053009033,0.011971008032560349,0.6875,0,-4.125,-67.23999786376953,-13.279999732971191,-55.92307662963867
IMU24,1695914265205000000,9.454702377319336,-2.564189910888672,0.023942016065120697,0.6875,-0.125,-5.9375,-67.76000213623047,-14.15999984741211,-55.46154022216797
IMU24,1695914265303000000,9.313444137573242,-2.6216509342193604,-0.2753331959247589,0.875,-0.3125,-7.3125,-55.31999969482422,-29.399999618530273,-51
IMU24,1695914265448000000,9.583989143371582,-2.2601263523101807,0.16759411990642548,1.0625,-0.125,-8.75,-52.959999084472656,-33.2400016784668,-51.07692337036133
IMU24,1695914265546000000,9.519346237182617,-2.339134931564331,-0.1173158809542656,1.4375,-0.25,-10.625,-53.36000061035156,-33.599998474121094,-51.53845977783203
IMU24,1695914265643000000,9.500192642211914,-1.9057844877243042,0.15801730751991272,1.875,-0.3125,-11.75,-53.36000061035156,-34.959999084472656,-51.53845977783203
IMU24,1695914265741000000,9.763554573059082,-1.8962076902389526,-0.031124621629714966,1.625,-0.375,-12.6875,-53.63999938964844,-35.7599983215332,-51.69230651855469
IMU24,1695914265838000000,9.801861763000488,-1.644816517829895,0.040701426565647125,1.5625,-0.0625,-12.25,-54.279998779296875,-36.439998626708984,-51.61538314819336
IMU24,1695914265985000000,9.744400978088379,-1.501164436340332,-0.14604629576206207,1.5625,-0.0625,-11.375,-55.08000183105469,-37.31999969482422,-52.38461685180664
IMU24,1695914266033000000,9.667786598205566,-1.422155737876892,0.021547814831137657,1.0625,-0.25,-10.5625,-55.959999084472656,-37.959999084472656,-53.07692337036133
IMU24,1695914266131000000,9.646238327026367,-1.0007762908935547,0.14365209639072418,1.0625,-0.25,-8.625,-56.599998474121094,-38.84000015258789,-52.69230651855469
IMU24,1695914266278000000,10.108319282531738,-0.790086567401886,0.07422025501728058,1.0625,-0.0625,-7.25,-57.439998626708984,-39.7599983215332,-52
IMU24,1695914266326000000,10.108319282531738,-0.8259995579719543,0.11252747476100922,0.75,-0.125,-5.375,-56.63999938964844,-41.599998474121094,-52
IMU24,1695914266423000000,10.012551307678223,-0.7613561153411865,-0.13407529890537262,0.375,-0.25,-3.625,-56.52000045776367,-38.79999923706055,-49.92307662963867
IMU24,1695914266521000000,9.885658264160156,-0.6943184733390808,-0.014365210197865963,0.1875,-0.0625,-2.5,-58.2400016784668,-37.7599983215332,-51
IMU24,1695914266619000000,9.998186111450195,-0.629675030708313,0.06703764945268631,0.0625,0,-0.3125,-58.560001373291016,-38.880001068115234,-52
IMU24,1695914266716000000,9.964667320251465,-0.5722141861915588,0.20111294090747833,-1.0625,0,-0.4375,-58.560001373291016,-38.84000015258789,-52.46154022216797
IMU24,1695914266863000000,10.228029251098633,-0.5602431893348694,0.3519476354122162,-6.0625,0.3125,0.125,-58.31999969482422,-38.720001220703125,-52.69230651855469
IMU24,1695914266911000000,10.041281700134277,-0.5410895943641663,0.18914192914962769,-9.125,0.3125,-0.6875,-58.2400016784668,-38.560001373291016,-52.846153259277344
IMU24,1695914267009000000,9.770736694335938,-0.5434837937355042,0.26815059781074524,-12.75,0.6875,-1,-58,-38.52000045776367,-51.846153259277344
IMU24,1695914267106000000,10.065223693847656,-0.5985504388809204,0.08140285313129425,-16.4375,0.75,-1,-57.79999923706055,-38.040000915527344,-51.07692337036133
IMU24,1695914267204000000,10.292673110961914,-0.3280056416988373,0.325611412525177,-19.875,1.4375,-1.25,-57.439998626708984,-37.439998626708984,-49.92307662963867
IMU24,1695914267350000000,9.605537414550781,-0.6129156351089478,0.3543418347835541,-23.25,1.25,-1.3125,-57.119998931884766,-37.040000915527344,-48
IMU24,1695914267447000000,10.369287490844727,-0.31603461503982544,0.24899697303771973,-27.75,1.75,-1.75,-57.15999984741211,-36.2400016784668,-47
IMU24,1695914267545000000,10.216058731079102,-0.6105214357376099,0.047884032130241394,-31.0625,2.125,-2.4375,-56.36000061035156,-35,-43.846153259277344
IMU24,1695914267642000000,10.06043529510498,0.17717091739177704,0.2537853717803955,-34.375,0.6875,-1.75,-54.68000030517578,-34.880001068115234,-41.92307662963867
IMU24,1695914267789000000,8.789113998413086,-0.7254431247711182,0.13407529890537262,-38.375,1.9375,-2.625,-56.15999984741211,-36.2400016784668,-41.38461685180664
IMU24,1695914267837000000,9.390058517456055,-0.10055647045373917,-0.19632454216480255,-42.4375,0.8125,-2.5,-56.279998779296875,-33.439998626708984,-36.61538314819336
IMU24,1695914267935000000,9.081207275390625,-0.38307225704193115,-0.4381389021873474,-40.625,1,-2.6875,-56.08000183105469,-31.15999984741211,-31.923076629638672
IMU24,1695914268081000000,9.816226959228516,0.31364041566848755,-0.047884032130241394,-36.625,1.125,-2.25,-56.2400016784668,-31.15999984741211,-28.153846740722656
IMU24,1695914268130000000,10.038887977600098,0.011971008032560349,-0.3423708379268646,-32.4375,0.875,-2.1875,-56.63999938964844,-29.799999237060547,-24.230770111083984
IMU24,1695914268227000000,8.506598472595215,-0.9888052940368652,0.15322890877723694,-28.9375,0.3125,-1.375,-56.599998474121094,-30.15999984741211,-22
IMU24,1695914268325000000,9.821015357971191,-0.09816227108240128,0.026336219161748886,-25.9375,0.5625,-2,-57.279998779296875,-29.280000686645508,-18.153846740722656
IMU24,1695914268423000000,10.110713958740234,-0.49320554733276367,-0.38307225704193115,-22.0625,0.5,-1.5625,-57.880001068115234,-28.799999237060547,-14.923076629638672
IMU24,1695914268520000000,10.050858497619629,-0.10295066982507706,-0.11971008032560349,-18.4375,0,-1.125,-58,-29.440000534057617,-12.769230842590332
IMU24,1695914268618000000,8.671798706054688,-0.33758243918418884,-0.09816227108240128,-14.5625,-0.125,-0.5,-58.2400016784668,-28.84000015258789,-11.384614944458008
IMU24,1695914268715000000,9.567230224609375,-0.07661445438861847,0.1628057062625885,-10.9375,-0.0625,-0.75,-58.880001068115234,-28.639999389648438,-9.538461685180664
IMU24,1695914268813000000,9.758766174316406,-0.2322375625371933,-0.033518824726343155,-7.4375,0.125,-0.5,-58.68000030517578,-28.959999084472656,-8
IMU24,1695914268910000000,9.897629737854004,-0.3423708379268646,-0.07422025501728058,-3.5625,-0.0625,0.25,-58.84000015258789,-28.959999084472656,-7.153846263885498
IMU24,1695914269008000000,9.88086986541748,-0.24420857429504395,-0.016759412363171577,0.125,-0.0625,0.1875,-59,-29.079999923706055,-6.692307472229004
IMU24,1695914269105000000,9.933542251586914,-0.06224924325942993,-0.05746084079146385,0.125,-0.125,-0.125,-59.31999969482422,-28.559999465942383,-7.307692527770996
IMU24,1695914269251000000,9.852139472961426,-0.028730420395731926,0.040701426565647125,0.1875,-0.0625,0,-59.439998626708984,-28.719999313354492,-7.07692289352417
IMU24,1695914269349000000,9.849745750427246,-0.021547814831137657,-0.038307227194309235,0.125,0,0.125,-59.279998779296875,-28.8799991607666,-6.769230842590332
IMU24,1695914269446000000,9.900023460388184,0.07900865375995636,0.05027823522686958,0,0,0.1875,-59.52000045776367,-28.84000015258789,-6.846153736114502
IMU24,1695914269543000000,9.840168952941895,-0.043095629662275314,-0.08379705995321274,0.125,-0.0625,-0.0625,-59.400001525878906,-28.600000381469727,-7.07692289352417
IMU24,1695914269641000000,9.825803756713867,-0.090979665517807,0.10534487664699554,-0.0625,-0.125,-0.125,-59.279998779296875,-28.719999313354492,-7.538461685180664
IMU24,1695914269739000000,9.837774276733398,-0.11013327538967133,-0.05746084079146385,0,0,0.1875,-59.31999969482422,-28.639999389648438,-6.769230842590332
IMU24,1695914269836000000,9.849745750427246,-0.035913024097681046,0.040701426565647125,0.0625,-0.125,0.125,-59.560001373291016,-28.68000030517578,-6.692307472229004
IMU24,1695914269934000000,9.832985877990723,-0.11971008032560349,-0.002394201699644327,-0.125,-0.3125,-0.125,-59.7599983215332,-28.920000076293945,-7
IMU24,1695914270031000000,9.818620681762695,-0.12689268589019775,0.035913024097681046,0.25,0,-0.0625,-59.439998626708984,-28.68000030517578,-6.769230842590332
IMU24,1695914270129000000,9.842562675476074,-0.08858545869588852,-0.023942016065120697,0.0625,0,-0.0625,-59.599998474121094,-28.760000228881836,-6.846153736114502
IMU24,1695914270227000000,9.871293067932129,-0.038307227194309235,0.05746084079146385,0.125,0,0,-59.119998931884766,-28.68000030517578,-7.307692527770996
IMU24,1695914270325000000,9.809043884277344,-0.11013327538967133,0.026336219161748886,0.0625,0,-0.1875,-59.560001373291016,-28.68000030517578,-7.692307472229004
IMU24,1695914270471000000,9.804255485534668,-0.1364694982767105,0.07422025501728058,0.125,0,-0.125,-59.400001525878906,-28.959999084472656,-6.307692527770996
IMU24,1695914270519000000,9.832985877990723,-0.090979665517807,0.031124621629714966,0.125,0,0,-59.15999984741211,-28.68000030517578,-6.538461685180664
IMU24,1695914270616000000,9.849745750427246,-0.09816227108240128,-0.0071826050989329815,0,-0.1875,-0.125,-59.279998779296875,-28.719999313354492,-6.92307710647583
IMU24,1695914270714000000,9.797073364257812,-0.1412578970193863,0.004788403399288654,0.125,-0.0625,0.125,-59.36000061035156,-28.639999389648438,-6.769230842590332
IMU24,1695914270811000000,9.818620681762695,-0.12210428714752197,0.014365210197865963,0.1875,-0.125,-0.125,-59.439998626708984,-28.799999237060547,-6.230769157409668
IMU24,1695914270958000000,9.84495735168457,-0.10295066982507706,0.06464344263076782,0.1875,-0.125,0,-59.279998779296875,-28.799999237060547,-6.230769157409668
IMU24,1695914271006000000,9.81143856048584,-0.0694318488240242,0.016759412363171577,0,-0.0625,-0.0625,-59.400001525878906,-28.559999465942383,-6.230769157409668
IMU24,1695914271152000000,9.821015357971191,-0.07661445438861847,0,0.125,-0.0625,0,-59.279998779296875,-28.639999389648438,-6.461538314819336
IMU24,1695914271202000000,9.84735107421875,-0.0933738648891449,0,0.0625,0,0,-59.47999954223633,-28.440000534057617,-6.692307472229004
IMU24,1695914271396000000,9.816226959228516,-0.035913024097681046,-0.004788403399288654,0.125,-0.125,0,-59.2400016784668,-28.559999465942383,-6.692307472229004
IMU24,1695914271445000000,9.84735107421875,-0.08379705995321274,0.014365210197865963,0,-0.0625,-0.0625,-59.31999969482422,-28.760000228881836,-6.769230842590332
IMU24,1695914271542000000,9.821015357971191,-0.06703764945268631,0.028730420395731926,0.125,-0.25,0,-59.31999969482422,-28.600000381469727,-7.07692289352417
IMU24,1695914271640000000,9.821015357971191,-0.06703764945268631,0.031124621629714966,0.3125,0,0,-59.52000045776367,-28.520000457763672,-7
IMU24,1695914271737000000,9.859322547912598,-0.040701426565647125,0.009576806798577309,0.25,-0.1875,-0.0625,-59.47999954223633,-28.68000030517578,-6.384615421295166
IMU24,1695914271884000000,9.792284965515137,-0.0933738648891449,0.019153613597154617,0.125,0,-0.0625,-59.20000076293945,-28.68000030517578,-6.92307710647583
IMU24,1695914271932000000,9.84495735168457,-0.06703764945268631,0.026336219161748886,0,0,-0.0625,-59.2400016784668,-28.68000030517578,-7.07692289352417
IMU24,1695914272030000000,9.84495735168457,-0.043095629662275314,0.05746084079146385,0,0,0,-59.31999969482422,-28.440000534057617,-6.692307472229004
IMU24,1695914272127000000,9.792284965515137,-0.06224924325942993,0.035913024097681046,0.125,-0.0625,0,-59.279998779296875,-28.479999542236328,-6
IMU24,1695914272225000000,9.832985877990723,-0.043095629662275314,0.05027823522686958,-0.0625,-0.0625,0,-59.400001525878906,-28.440000534057617,-6.153846263885498
IMU24,1695914272323000000,9.828197479248047,-0.05027823522686958,0.026336219161748886,0.125,-0.125,0,-59.36000061035156,-28.68000030517578,-7.07692289352417
IMU24,1695914272420000000,9.809043884277344,-0.09576806426048279,0.014365210197865963,0.1875,-0.125,0.0625,-59.63999938964844,-28.600000381469727,-7
IMU24,1695914272518000000,9.866504669189453,-0.10295066982507706,0.014365210197865963,0.125,0.0625,0.0625,-59.31999969482422,-28.68000030517578,-6.153846263885498
IMU24,1695914272615000000,9.852139472961426,-0.0933738648891449,0.016759412363171577,0.1875,0,0,-59.31999969482422,-28.760000228881836,-6.692307472229004
IMU24,1695914272713000000,9.876081466674805,-0.07182604819536209,0.040701426565647125,0,0.125,-0.0625,-59.31999969482422,-28.639999389648438,-6.538461685180664
IMU24,1695914272810000000,9.823409080505371,-0.08379705995321274,-0.004788403399288654,0.125,0,0,-59.31999969482422,-28.84000015258789,-6.307692527770996
IMU24,1695914272908000000,9.837774276733398,-0.07661445438861847,-0.009576806798577309,0.0625,-0.125,-0.25,-59.31999969482422,-28.639999389648438,-6.461538314819336
IMU24,1695914273102000000,9.81383228302002,-0.0694318488240242,0.047884032130241394,0.1875,-0.25,0,-59.36000061035156,-28.68000030517578,-6.769230842590332
IMU24,1695914273151000000,9.856927871704102,-0.10773907601833344,0.011971008032560349,0.25,0.0625,-0.125,-59.400001525878906,-28.639999389648438,-6.692307472229004
IMU24,1695914273249000000,9.830592155456543,-0.07182604819536209,0.002394201699644327,0.125,0,-0.125,-59.52000045776367,-28.559999465942383,-6.538461685180664
IMU24,1695914273346000000,9.801861763000488,-0.07422025501728058,0.040701426565647125,-0.0625,0,0,-59.560001373291016,-28.360000610351562,-6.538461685180664
IMU24,1695914273493000000,9.837774276733398,-0.10055647045373917,0.021547814831137657,0.0625,0,0.125,-59.36000061035156,-28.639999389648438,-6.153846263885498
IMU24,1695914273542000000,9.821015357971191,-0.07182604819536209,0.016759412363171577,0.1875,0,0,-59.279998779296875,-28.639999389648438,-6.153846263885498
IMU24,1695914273639000000,9.806650161743164,-0.08140285313129425,0.047884032130241394,0.0625,0.0625,-0.125,-59.279998779296875,-28.799999237060547,-6.615384578704834
IMU24,1695914273736000000,9.830592155456543,-0.07422025501728058,0.06464344263076782,0,-0.0625,-0.0625,-59.20000076293945,-28.8799991607666,-6.384615421295166
IMU24,1695914273834000000,9.856927871704102,-0.05267243832349777,0.033518824726343155,0.3125,0,0,-59.2400016784668,-28.68000030517578,-6.461538314819336
IMU24,1695914273931000000,9.837774276733398,-0.08140285313129425,0.06224924325942993,0,-0.0625,0,-59.47999954223633,-28.479999542236328,-6.384615421295166
IMU24,1695914274029000000,9.856927871704102,-0.06464344263076782,0.009576806798577309,0.25,0.125,-0.0625,-59.52000045776367,-28.68000030517578,-6.769230842590332
IMU24,1695914274175000000,9.765948295593262,-0.08140285313129425,-0.24899697303771973,10.375,0.125,-0.4375,-59.31999969482422,-28.719999313354492,-7
IMU24,1695914274224000000,10.014945983886719,0.08379705995321274,-0.16519992053508759,20.75,-0.125,-0.8125,-59.400001525878906,-28.520000457763672,-7.692307472229004
IMU24,1695914274322000000,9.550470352172852,-0.4620809257030487,-0.2992752194404602,30.1875,0,-0.9375,-59.400001525878906,-28.600000381469727,-9.15384578704834
IMU24,1695914274419000000,9.923965454101562,0.42616790533065796,-0.31364041566848755,41.5,-0.25,-1.25,-59.47999954223633,-28.479999542236328,-12
IMU24,1695914274517000000,9.840168952941895,0.40222588181495667,-0.35913026332855225,50.625,0.25,-1.3125,-59.720001220703125,-28.040000915527344,-15.230769157409668
IMU24,1695914274614000000,10.029311180114746,0.06464344263076782,-0.035913024097681046,60.4375,0,-1.625,-59.959999084472656,-28.280000686645508,-19.923076629638672
IMU24,1695914274760000000,9.672574996948242,-0.19871874153614044,-0.10055647045373917,71.6875,-0.25,-1.5625,-60.7599983215332,-27.8799991607666,-24.538461685180664
IMU24,1695914274857000000,9.591172218322754,-0.22266075015068054,-0.19632454216480255,80.875,0.1875,-2.125,-60.91999816894531,-29.200000762939453,-30.230770111083984
IMU24,1695914274955000000,9.864110946655273,1.039083480834961,0.05267243832349777,91.9375,-0.625,-2.1875,-62.15999984741211,-28.559999465942383,-35.69230651855469
IMU24,1695914275052000000,9.14345645904541,-0.6584054827690125,0.17477671802043915,93.375,0.25,-2,-63.959999084472656,-28.239999771118164,-40
IMU24,1695914275151000000,9.198522567749023,0.035913024097681046,0.711077868938446,83.125,0.5,-1.875,-64.08000183105469,-31.760000228881836,-45.69230651855469
IMU24,1695914275296000000,9.797073364257812,0.031124621629714966,0.004788403399288654,74.3125,-0.125,-2,-65.4800033569336,-31.760000228881836,-49.153846740722656
IMU24,1695914275345000000,9.68694019317627,0.5243301391601562,0.0933738648891449,63.75,0.125,-1.6875,-66.91999816894531,-32.15999984741211,-50.769229888916016
IMU24,1695914275443000000,9.955090522766113,0.29448679089546204,0.33039984107017517,53.625,0,-0.9375,-66.95999908447266,-34.79999923706055,-52.769229888916016
IMU24,1695914275540000000,9.694122314453125,-0.08858545869588852,0.36152446269989014,43.1875,0,-1.0625,-67.91999816894531,-35.36000061035156,-54.230770111083984
IMU24,1695914275637000000,9.746794700622559,-0.6464344263076782,0.5626373887062073,33.5625,-0.0625,-0.9375,-68.72000122070312,-36.63999938964844,-54.846153259277344
IMU24,1695914275735000000,9.583989143371582,-0.33518823981285095,0.3495534360408783,23.125,-0.125,-0.4375,-68.83999633789062,-38.31999969482422,-55.53845977783203
IMU24,1695914275833000000,9.787496566772461,0.06464344263076782,0.28730419278144836,13,-0.25,-0.125,-69.23999786376953,-39.040000915527344,-55.769229888916016
IMU24,1695914275979000000,9.959878921508789,0.1604115068912506,0.4357447028160095,2.6875,0,-0.125,-69.5999984741211,-39.7599983215332,-55.30769348144531
IMU24,1695914276028000000,9.897629737854004,0.07422025501728058,-0.0694318488240242,0.25,-0.25,7.25,-69.5199966430664,-40.31999969482422,-54.769229888916016
IMU24,1695914276126000000,10.007762908935547,-0.10534487664699554,0.07422025501728058,0.125,-0.1875,17.4375,-69.08000183105469,-39.84000015258789,-54.846153259277344
IMU24,1695914276223000000,10.132261276245117,-0.2346317619085312,0.009576806798577309,0.5,-0.25,28.0625,-68.83999633789062,-38.560001373291016,-55.38461685180664
IMU24,1695914276320000000,9.694122314453125,-1.1875240802764893,0.12449848651885986,0.625,-0.1875,38.5625,-68.36000061035156,-36.959999084472656,-55.07692337036133
IMU24,1695914276418000000,9.86889934539795,-1.8770540952682495,0.033518824726343155,1.25,0,50.1875,-66.95999908447266,-34.400001525878906,-54.846153259277344
IMU24,1695914276515000000,9.603142738342285,-2.6455929279327393,0.19153612852096558,1.125,-0.125,59.6875,-66.04000091552734,-31.68000030517578,-54.846153259277344
IMU24,1695914276661000000,9.658209800720215,-3.2178070545196533,0.3423708379268646,1.3125,-0.0625,69.9375,-63.2400016784668,-27.399999618530273,-55.230770111083984
IMU24,1695914276759000000,10.046070098876953,-4.685452461242676,0.6536170244216919,1.3125,-0.8125,81.4375,-61.279998779296875,-23.360000610351562,-54.38461685180664
IMU24,1695914276856000000,7.939172744750977,-4.948814868927002,0.07900865375995636,0.75,-0.25,90.125,-56.08000183105469,-18.520000457763672,-53.846153259277344
IMU24,1695914276954000000,5.932831764221191,-6.675034046173096,0.11252747476100922,1.1875,-0.0625,80.8125,-49,-12.079999923706055,-53.69230651855469
IMU24,1695914277051000000,6.054935932159424,-7.620743751525879,-0.17956513166427612,1.4375,-0.1875,70.0625,-45.84000015258789,-9.15999984741211,-53.53845977783203
IMU24,1695914277149000000,4.790797710418701,-8.121131896972656,-0.08140285313129425,1.125,-0.1875,60.6875,-39.7599983215332,-5.400000095367432,-53.38461685180664
IMU24,1695914277246000000,4.165910720825195,-8.772355079650879,0.19871874153614044,1.25,-0.0625,49.1875,-34.84000015258789,-2.5199999809265137,-53.30769348144531
IMU24,1695914277344000000,3.665522813796997,-8.904035568237305,0.05267243832349777,0.75,0.0625,39.25,-32.959999084472656,-1.559999942779541,-51.30769348144531
IMU24,1695914277441000000,2.540247917175293,-9.370904922485352,0.19632454216480255,0.625,0,29.4375,-33.63999938964844,-1.2400000095367432,-46
IMU24,1695914277588000000,2.5282769203186035,-9.44991397857666,0.08140285313129425,0,-0.0625,17.625,-43.20000076293945,-12.079999923706055,-38.769229888916016
IMU24,1695914277638000000,2.0398597717285156,-9.667786598205566,0.16998831927776337,0.4375,0.0625,10.8125,-51.08000183105469,-25.559999465942383,-38.07692337036133
IMU24,1695914277783000000,2.011129379272461,-9.66539192199707,0.19153612852096558,0.0625,0.0625,-4.4375,-47.400001525878906,-163.55999755859375,-132
IMU24,1695914277832000000,1.4173673391342163,-9.732429504394531,0.12449848651885986,-0.375,0.0625,-16,-11,-409.44000244140625,-427.8461608886719
IMU24,1695914277929000000,1.7621324062347412,-9.68933391571045,0.06224924325942993,-0.375,-0.0625,-25.75,-1298.6800537109375,937.7999877929688,-2520.615478515625
IMU24,1695914278075000000,2.2888567447662354,-9.476249694824219,-0.035913024097681046,-0.125,0,-35.25,150.63999938964844,655.4000244140625,76.38461303710938
IMU24,1695914278172000000,3.0813374519348145,-9.102754592895508,-0.011971008032560349,-0.25,0,-45.4375,350.6000061035156,295,-1249.84619140625
IMU24,1695914278270000000,3.220201253890991,-8.753201484680176,-0.038307227194309235,-0.375,0.25,-47.25,166.0800018310547,327.79998779296875,-705.6153564453125
IMU24,1695914278368000000,5.56173038482666,-8.238448143005371,0.028730420395731926,-0.25,0.5,-37.375,-19.600000381469727,106.91999816894531,-99.07691955566406
IMU24,1695914278514000000,6.191405296325684,-8.08043098449707,0.13407529890537262,0,0.125,-26.8125,-24.239999771118164,40.36000061035156,-52.30769348144531
IMU24,1695914278563000000,6.603208065032959,-7.733271598815918,0.028730420395731926,-0.1875,0.125,-16,-20.31999969482422,20.84000015258789,-35.07692337036133
IMU24,1695914278660000000,6.768408298492432,-7.668627738952637,0.10055647045373917,0.0625,0,-5.5,-15.760000228881836,13.15999984741211,-32
IMU24,1695914278758000000,6.840234279632568,-7.656656742095947,0.13168108463287354,-0.0625,0.0625,-4.0625,-14,11.479999542236328,-32.92307662963867
IMU24,1695914278855000000,6.052541732788086,-7.7428483963012695,0.031124621629714966,-0.0625,-0.25,-13.5625,-13.359999656677246,10.279999732971191,-33.53845977783203
IMU24,1695914278953000000,6.133944511413574,-7.5848307609558105,-0.05746084079146385,0.125,-0.0625,-22.5,-14.079999923706055,9.680000305175781,-34.92307662963867
IMU24,1695914279051000000,6.540958881378174,-7.3669586181640625,-0.05985504016280174,0.5,-0.75,-32.0625,-14.800000190734863,8.84000015258789,-35.46154022216797
IMU24,1695914279148000000,6.653486251831055,-6.890512466430664,0.09576806426048279,0.1875,-0.6875,-41.375,36.439998626708984,9.15999984741211,-41.769229888916016
IMU24,1695914279245000000,7.85537576675415,-6.296750545501709,0.021547814831137657,0.4375,-0.5625,-50.5,34.84000015258789,7.440000057220459,-41.69230651855469
IMU24,1695914279343000000,7.343016624450684,-5.87776517868042,-0.14604629576206207,0.8125,-0.75,-60.4375,50.439998626708984,7.559999942779541,-44.38461685180664
IMU24,1695914279489000000,8.53293514251709,-4.790797710418701,0.17956513166427612,0.8125,-0.6875,-70.25,54.31999969482422,6.840000152587891,-45.153846740722656
IMU24,1695914279538000000,9.821015357971191,-3.514688014984131,-0.304063618183136,0.75,-0.4375,-79.125,51.63999938964844,2.0399999618530273,-46.230770111083984
IMU24,1695914279635000000,7.9631147384643555,-3.0095114707946777,-0.1604115068912506,1,0.375,-88.875,49.119998931884766,-0.20000000298023224,-46.61538314819336
IMU24,1695914279733000000,9.069235801696777,-0.2753331959247589,0.17477671802043915,1,0.1875,-87.375,43.20000076293945,-3.640000104904175,-47.769229888916016
IMU24,1695914279831000000,11.384428977966309,0.8978255987167358,0.11013327538967133,1.9375,0.3125,-78,41.84000015258789,-9.359999656677246,-48.61538314819336
IMU24,1695914279976000000,9.198522567749023,2.631227731704712,-0.05267243832349777,1.0625,0.625,-69.0625,36,-13.239999771118164,-48.92307662963867
IMU24,1695914280075000000,9.943119049072266,3.3279402256011963,-0.028730420395731926,0.5,1,-60.625,31.68000030517578,-17.079999923706055,-49.153846740722656
IMU24,1695914280220000000,8.793902397155762,3.6583402156829834,0.20111294090747833,0.75,0.375,-50.0625,32.31999969482422,-21.84000015258789,-49.46154022216797
IMU24,1695914280269000000,8.741230010986328,4.879383087158203,0.14844051003456116,0.4375,0.8125,-40.5625,29.719999313354492,-24.68000030517578,-48.46154022216797
IMU24,1695914280415000000,8.645462036132812,4.934449672698975,0.17238251864910126,0.4375,0.875,-31.5,30.399999618530273,-27.799999237060547,-48.46154022216797
IMU24,1695914280464000000,8.439560890197754,5.477933406829834,0.33758243918418884,0.625,0.5,-21.8125,28.760000228881836,-29.559999465942383,-48.30769348144531
IMU24,1695914280562000000,7.975085735321045,5.817910194396973,-0.014365210197865963,0,0,-12.9375,28.360000610351562,-30.920000076293945,-48
IMU24,1695914280659000000,8.04930591583252,5.69819974899292,0.06224924325942993,-0.0625,0,-3.4375,28.639999389648438,-31.84000015258789,-48.30769348144531
IMU24,1695914280757000000,7.951143741607666,5.932831764221191,0.09816227108240128,0.0625,-0.125,5.6875,28.31999969482422,-32.15999984741211,-48.30769348144531
IMU24,1695914280854000000,8.058882713317871,5.827486991882324,0.13407529890537262,-0.375,0,15.4375,28.079999923706055,-31.920000076293945,-47.92307662963867
IMU24,1695914280952000000,8.192957878112793,5.645527362823486,0,-0.375,-0.4375,25.0625,27.84000015258789,-30.799999237060547,-47.769229888916016
IMU24,1695914281049000000,8.786720275878906,5.351040840148926,0.07900865375995636,-0.375,-1.3125,33.3125,27.15999984741211,-29.239999771118164,-47.30769348144531
IMU24,1695914281147000000,9.028534889221191,4.881777286529541,0.17956513166427612,-0.6875,-1.375,43.4375,26.280000686645508,-26.84000015258789,-47.30769348144531
IMU24,1695914281293000000,8.870516777038574,3.7205893993377686,0.0071826050989329815,-0.375,-0.8125,53.4375,25.719999313354492,-24.239999771118164,-46.53845977783203
IMU24,1695914281391000000,9.361328125,3.3255460262298584,0.0933738648891449,-1.125,-1.0625,61.6875,24.399999618530273,-20.799999237060547,-46.38461685180664
IMU24,1695914281439000000,8.51138687133789,2.537853717803955,0.12449848651885986,-0.375,-1,70.5625,23.8799991607666,-16.559999465942383,-45.153846740722656
IMU24,1695914281537000000,10.02452278137207,1.9728221893310547,0.2849099934101105,-0.5,-0.0625,80.6875,22.1200008392334,-12.039999961853027,-44.69230651855469
IMU24,1695914281683000000,9.346962928771973,-0.10534487664699554,0.023942016065120697,-1.625,0.25,90.1875,20,-6.320000171661377,-43.07692337036133
IMU24,1695914281780000000,9.569623947143555,-0.1364694982767105,0.09576806426048279,-1.4375,1.875,85.4375,20.1200008392334,-0.7200000286102295,-41.846153259277344
IMU24,1695914281927000000,10.007762908935547,-2.389413356781006,-0.26575639843940735,-0.75,0.375,75.9375,16.520000457763672,4.559999942779541,-39.38461685180664
IMU24,1695914281975000000,8.662221908569336,-2.8993782997131348,0.2849099934101105,-0.5625,0.5625,67.25,7.360000133514404,7.519999980926514,-36.769229888916016
IMU24,1695914282121000000,8.161833763122559,-5.578489780426025,-0.05506663769483566,-0.375,0.875,57.75,-73.04000091552734,-47.47999954223633,-196.53846740722656
IMU24,1695914282170000000,8.118738174438477,-5.827486991882324,-0.009576806798577309,-0.125,0.3125,49.125,-5.519999980926514,-142.60000610351562,-476
IMU24,1695914282267000000,7.094019412994385,-6.495469093322754,-0.009576806798577309,-0.3125,0.5,39,71.80000305175781,-196,-978.5384521484375
IMU24,1695914282365000000,6.4595561027526855,-7.2352776527404785,0.12449848651885986,-0.25,0.625,29.1875,-283.239990234375,453.0799865722656,-277.8461608886719
IMU24,1695914282463000000,6.421248912811279,-7.127538204193115,0.05267243832349777,-0.0625,0.6875,19.6875,-148.44000244140625,303.8800048828125,10.923076629638672
IMU24,1695914282561000000,5.9304375648498535,-7.740454196929932,0.07422025501728058,0.3125,0.1875,10.5625,455.20001220703125,7.840000152587891,-2277.84619140625
IMU24,1695914282658000000,5.935225963592529,-7.740454196929932,0,0.1875,0.1875,1.9375,494.1600036621094,37.2400016784668,-1748.4615478515625
IMU24,1695914282756000000,5.872976779937744,-7.893682956695557,-0.10055647045373917,2,-2.8125,-7.6875,-473.79998779296875,1295.6400146484375,-1723.5384521484375
IMU24,1695914282853000000,6.011840343475342,-7.656656742095947,-0.011971008032560349,4.875,-6.125,-17.625,-1251,1310.6800537109375,2466.6923828125
IMU24,1695914282951000000,6.291962146759033,-7.5632829666137695,-0.043095629662275314,7.6875,-9,-26.6875,-360.8399963378906,814.280029296875,115.69230651855469
IMU24,1695914283048000000,6.342240333557129,-7.115567207336426,-0.13168108463287354,11.4375,-11.9375,-36.75,16.040000915527344,201.44000244140625,282.3846130371094
IMU24,1695914283146000000,7.036558628082275,-6.576871871948242,-0.2968810200691223,15.1875,-14.3125,-45.9375,41.31999969482422,148.52000427246094,220.3076934814453
IMU24,1695914283243000000,7.386112213134766,-6.414066314697266,-0.1604115068912506,19.6875,-14.6875,-55.875,47.79999923706055,132.0399932861328,201.76922607421875
IMU24,1695914283341000000,6.861782073974609,-5.2480902671813965,-0.002394201699644327,24.8125,-16,-64.0625,51.31999969482422,124.95999908447266,192.6923065185547
IMU24,1695914283438000000,8.853757858276367,-4.393360137939453,-0.16519992053508759,30.625,-14.1875,-74.625,50.79999923706055,119.5199966430664,188
IMU24,1695914283585000000,9.102754592895508,-1.8794482946395874,-0.5051765441894531,36.5625,-10.1875,-84.75,48.68000030517578,113.5199966430664,185.92308044433594
IMU24,1695914283682000000,10.405200004577637,-1.4676456451416016,-0.8906430006027222,41.125,-4.5625,-94.1875,46.79999923706055,106.08000183105469,184.61538696289062
IMU24,1695914283779000000,9.945513725280762,0.4405331015586853,-0.17717091739177704,44.25,2.5625,-100.875,45.52000045776367,97.5999984741211,185.61538696289062
IMU24,1695914283877000000,10.18493366241455,2.5689783096313477,0.363918662071228,39.5,8.875,-91.375,45.560001373291016,88.83999633789062,185.84616088867188
IMU24,1695914283974000000,9.691728591918945,3.450044631958008,0.5578489899635315,34.4375,13.5625,-81.9375,46.68000030517578,80.76000213623047,185.92308044433594
IMU24,1695914284071000000,8.83939266204834,3.864241361618042,0.6464344263076782,29,15.1875,-72.125,50.2400016784668,47.560001373291016,196.92308044433594
IMU24,1695914284170000000,9.684545516967773,5.171475410461426,0.7158662676811218,24.0625,15.9375,-62.375,54.959999084472656,34.84000015258789,199.38461303710938
IMU24,1695914284267000000,7.939172744750977,5.849034786224365,0.9193734526634216,17.8125,15.875,-53.4375,58.2400016784668,30.31999969482422,202.76922607421875
IMU24,1695914284364000000,7.529764175415039,6.289567947387695,0.6272808313369751,13.5,14.6875,-43.8125,62.68000030517578,25.479999542236328,205.15383911132812
IMU24,1695914284462000000,6.878541469573975,7.091625213623047,0.730231523513794,9.9375,11.9375,-34.625,65.31999969482422,23.239999771118164,206.46153259277344
IMU24,1695914284559000000,6.3518171310424805,7.180210590362549,0.21547815203666687,7,9.125,-24.4375,68.4000015258789,20.8799991607666,207
IMU24,1695914284657000000,6.045359134674072,7.594407558441162,0.17238251864910126,4.375,5.75,-15.6875,70,19.520000457763672,207.23077392578125
IMU24,1695914284754000000,6.011840343475342,7.800309181213379,0.2322375625371933,1.5,2.375,-5.875,71.04000091552734,19.200000762939453,207.15383911132812
IMU24,1695914284852000000,5.987898349761963,7.862558364868164,0.2992752194404602,-0.125,0.25,4.5,71.55999755859375,18.639999389648438,207.15383911132812
IMU24,1695914284949000000,6.086060523986816,7.757213592529297,0.1604115068912506,0.125,0,14.5625,70.83999633789062,18.600000381469727,205.07691955566406
IMU24,1695914285047000000,6.22971248626709,7.769184589385986,0.24181437492370605,0.4375,-0.1875,25.4375,70.04000091552734,17.799999237060547,203.3076934814453
IMU24,1695914285144000000,6.7013702392578125,7.503427982330322,0.18914192914962769,0.625,-0.125,35.625,68.76000213623047,18.1200008392334,202.07691955566406
IMU24,1695914285242000000,6.979097843170166,7.283161640167236,0.2322375625371933,0.75,-0.3125,45.6875,66.5199966430664,19.239999771118164,202.61538696289062
IMU24,1695914285339000000,7.692569732666016,6.433219909667969,0.31842881441116333,1.375,-0.25,56.9375,63.880001068115234,20.479999542236328,202.53846740722656
IMU24,1695914285437000000,7.888894557952881,6.251260757446289,-0.035913024097681046,1.125,-0.75,67.6875,60.599998474121094,22.399999618530273,202.23077392578125
IMU24,1695914285583000000,9.124302864074707,5.04218864440918,0.2106897532939911,0.9375,0.0625,77.0625,57.20000076293945,25.200000762939453,201.53846740722656
IMU24,1695914285680000000,9.667786598205566,4.185064315795898,0.29448679089546204,1.125,0,87.0625,52.79999923706055,28.520000457763672,202.23077392578125
IMU24,1695914285778000000,10.213664054870605,2.583343505859375,0.7996633648872375,1.625,-0.25,97.875,47.79999923706055,32.91999816894531,204.38461303710938
IMU24,1695914285875000000,9.809043884277344,1.5418658256530762,0.24420857429504395,1.125,-0.6875,109.1875,44.36000061035156,39.91999816894531,204.15383911132812
IMU24,1695914285973000000,10.232817649841309,-0.895431399345398,0.325611412525177,2,-0.375,107.125,40.2400016784668,45.7599983215332,206.53846740722656
IMU24,1695914286071000000,8.98543930053711,-3.095702648162842,0.05267243832349777,1.5,-0.875,96.625,36.2400016784668,51.91999816894531,208.07691955566406
IMU24,1695914286168000000,9.131484985351562,-3.885789394378662,-0.0454898327589035,1.5625,-0.1875,87.0625,36,58.560001373291016,208.46153259277344
IMU24,1695914286265000000,6.378153324127197,-5.475539207458496,-0.05027823522686958,1.375,-0.0625,75.6875,33.91999816894531,63.2400016784668,210.38461303710938
IMU24,1695914286363000000,6.160280704498291,-6.909666061401367,0.0694318488240242,0.8125,-1,65.0625,32.79999923706055,67.12000274658203,211
IMU24,1695914286461000000,6.852205276489258,-7.333439826965332,0.24660277366638184,0.9375,-0.4375,54.625,34.119998931884766,71.63999938964844,210.76922607421875
IMU24,1695914286558000000,5.185840606689453,-7.975085735321045,0.009576806798577309,0.75,-0.5,45.125,34,74.55999755859375,211.23077392578125
IMU24,1695914286656000000,4.271255970001221,-8.537723541259766,-0.033518824726343155,0.125,-0.5,34,35.52000045776367,77.16000366210938,210.92308044433594
IMU24,1695914286753000000,4.434061527252197,-8.59997272491455,0.031124621629714966,0,-0.3125,23.4375,35.52000045776367,78.83999633789062,211.38461303710938
IMU24,1695914286851000000,4.027047157287598,-8.822632789611816,0.10295066982507706,0,-0.3125,13.625,36.119998931884766,79.91999816894531,211.3076934814453
IMU24,1695914286948000000,3.758896589279175,-9.062053680419922,0.11013327538967133,0.375,-0.3125,2.5625,36.560001373291016,80.76000213623047,211.38461303710938
IMU24,1695914287046000000,4.156333923339844,-8.968679428100586,0.5027823448181152,-2.125,5.1875,-1.6875,36.63999938964844,81.23999786376953,211.07691955566406
IMU24,1695914287143000000,3.909731388092041,-9.059659004211426,0.13407529890537262,-5.25,12.375,-5.9375,36.68000030517578,80.91999816894531,210.92308044433594
IMU24,1695914287289000000,3.622427225112915,-9.014169692993164,0.16519992053508759,-8.9375,19.9375,-10,36.84000015258789,81.19999694824219,210.76922607421875
IMU24,1695914287387000000,4.237736701965332,-8.84178638458252,0.11013327538967133,-13.6875,27.625,-13.0625,37.040000915527344,80.80000305175781,210.3076934814453
IMU24,1695914287484000000,4.175487518310547,-9.033323287963867,0.18914192914962769,-18.0625,34.5,-17.5,37.08000183105469,80.55999755859375,208.38461303710938
IMU24,1695914287582000000,5.0900726318359375,-8.686163902282715,0.0454898327589035,-23.3125,41.625,-21.25,37.68000030517578,80.4800033569336,206.23077392578125
IMU24,1695914287679000000,5.442020416259766,-8.106766700744629,0.208295539021492,-29.25,47.1875,-24.875,38.119998931884766,79.87999725341797,202.15383911132812
IMU24,1695914287777000000,6.265625953674316,-8.233659744262695,0.4572925269603729,-35.75,51.75,-27.625,38.52000045776367,80.04000091552734,200.53846740722656
IMU24,1695914287874000000,6.440402507781982,-7.797914981842041,0.12689268589019775,-37.75,49,-27.3125,39.20000076293945,79.5199966430664,194.3076934814453
IMU24,1695914287971000000,4.917690277099609,-8.300697326660156,0.12689268589019775,-39.75,47.6875,-28.125,39.79999923706055,79.23999786376953,186.76922607421875
IMU24,1695914288069000000,5.738901615142822,-7.127538204193115,0.2753331959247589,-41.75,46.1875,-27.5625,40.68000030517578,79.76000213623047,185.23077392578125
IMU24,1695914288167000000,8.348581314086914,-6.560112476348877,-0.2849099934101105,-43.4375,43.25,-26.75,41.47999954223633,79.68000030517578,178.76922607421875
IMU24,1695914288264000000,7.115567207336426,-6.663063049316406,0.22744916379451752,-45.75,41.3125,-27.5625,42.119998931884766,79.4000015258789,172.61538696289062
IMU24,1695914288362000000,6.639121055603027,-6.461950302124023,0.47405192255973816,-48.125,38.75,-27.5,42.560001373291016,80.72000122070312,172.07691955566406
IMU24,1695914288508000000,8.24084186553955,-5.705382347106934,0.1173158809542656,-50.1875,35.8125,-27.1875,42.84000015258789,80.44000244140625,167.23077392578125
IMU24,1695914288557000000,7.7165117263793945,-6.078877925872803,0.13407529890537262,-51.625,33.8125,-27.3125,42.91999816894531,80.72000122070312,162.61538696289062
IMU24,1695914288655000000,7.790732383728027,-5.003881454467773,0.38067805767059326,-53,31.75,-27.5625,43.119998931884766,82.04000091552734,164.61538696289062
IMU24,1695914288752000000,9.308655738830566,-4.606443881988525,-0.26815059781074524,-54,28.625,-26.5625,42.880001068115234,81.95999908447266,161
IMU24,1695914288850000000,7.9176249504089355,-4.448426723480225,0.05506663769483566,-55.4375,26.0625,-27.25,42.7599983215332,82.83999633789062,163.46153259277344
IMU24,1695914288947000000,8.595184326171875,-4.079719543457031,0.09816227108240128,-57.1875,24.1875,-27.3125,42.439998626708984,82.83999633789062,162
IMU24,1695914289093000000,8.973467826843262,-3.246537446975708,0.181959331035614,-57.25,19.4375,-26.875,42.08000183105469,82.68000030517578,161.07691955566406
IMU24,1695914289190000000,10.103530883789062,-2.47560453414917,-0.19393032789230347,-58.875,17.6875,-27,41.279998779296875,83.5199966430664,165
IMU24,1695914289288000000,9.519346237182617,-2.166752576828003,-0.1364694982767105,-59.125,14.5,-26.875,40.31999969482422,83.04000091552734,164.53846740722656
IMU24,1695914289385000000,9.481039047241211,-2.051830768585205,0.15083470940589905,-59.5,11.4375,-27.125,39,82.44000244140625,166.3076934814453
IMU24,1695914289483000000,10.563218116760254,-1.115697979927063,-0.4620809257030487,-52.9375,7.875,-24.25,37.52000045776367,81.04000091552734,170.38461303710938
IMU24,1695914289580000000,9.011775016784668,-1.8124107122421265,-0.023942016065120697,-44.75,4.5625,-20,37.20000076293945,79.44000244140625,172.3076934814453
IMU24,1695914289678000000,9.636661529541016,-1.2018892765045166,-0.2513911724090576,-37.4375,2.8125,-16.875,36.599998474121094,78.04000091552734,173.53846740722656
IMU24,1695914289776000000,9.75397777557373,-0.751779317855835,-0.17238251864910126,-29.375,1.25,-13.125,35.47999954223633,77.63999938964844,176.61538696289062
IMU24,1695914289922000000,9.892841339111328,-0.26815059781074524,-0.021547814831137657,-20.8125,0.6875,-9,35.119998931884766,76.4000015258789,178.15383911132812
IMU24,1695914289970000000,9.885658264160156,-0.040701426565647125,-0.1388636976480484,-13.25,0.375,-5.875,34.560001373291016,75.83999633789062,180.3076934814453
IMU24,1695914290068000000,9.967061042785645,-0.08140285313129425,-0.12449848651885986,-4.625,0.125,-2.1875,34.36000061035156,75,181.07691955566406
IMU24,1695914290165000000,9.986215591430664,-0.07900865375995636,-0.0454898327589035,-0.25,-0.125,0,34.040000915527344,75.16000366210938,181.38461303710938
IMU24,1695914290312000000,9.751583099365234,-0.004788403399288654,0.10534487664699554,0,0.0625,0,34,74.76000213623047,181.3076934814453
IMU24,1695914290410000000,9.873687744140625,-0.10534487664699554,0.016759412363171577,0,-0.0625,0,34.040000915527344,75.23999786376953,181.23077392578125
IMU24,1695914290458000000,9.818620681762695,-0.090979665517807,0.05746084079146385,-0.1875,0.0625,0.0625,33.91999816894531,75.08000183105469,181.38461303710938
IMU24,1695914290556000000,9.816226959228516,-0.028730420395731926,-0.009576806798577309,-0.0625,0,0,33.959999084472656,75.04000091552734,181.07691955566406
IMU24,1695914290653000000,9.876081466674805,-0.12689268589019775,0.05746084079146385,-0.0625,0,-0.125,34.040000915527344,74.95999908447266,181.38461303710938
IMU24,1695914290751000000,9.832985877990723,-0.047884032130241394,-0.040701426565647125,0,-0.125,0,33.79999923706055,75.04000091552734,181.3076934814453
IMU24,1695914290848000000,9.837774276733398,-0.040701426565647125,0.033518824726343155,0.1875,0,0,33.880001068115234,74.95999908447266,181.15383911132812
IMU24,1695914290946000000,9.830592155456543,-0.07900865375995636,0.031124621629714966,0,0.0625,-0.0625,34,75,181.15383911132812
IMU24,1695914291091000000,9.818620681762695,-0.031124621629714966,-0.004788403399288654,0,0,0,33.84000015258789,74.87999725341797,181.07691955566406
IMU24,1695914291189000000,9.84495735168457,-0.06464344263076782,0.033518824726343155,0.25,-0.0625,0.125,34,74.87999725341797,180.76922607421875
IMU24,1695914291287000000,9.825803756713867,-0.05746084079146385,-0.011971008032560349,0.125,0,-0.0625,33.880001068115234,74.72000122070312,179.92308044433594
IMU24,1695914291384000000,9.854534149169922,-0.047884032130241394,-0.004788403399288654,-0.0625,0,0,33.880001068115234,75.04000091552734,182
IMU24,1695914291530000000,9.854534149169922,-0.047884032130241394,0.05746084079146385,0.0625,0,-0.0625,34.20000076293945,74.83999633789062,181.84616088867188
IMU24,1695914291579000000,9.854534149169922,-0.05985504016280174,0.011971008032560349,-0.0625,0,0,34,75.08000183105469,181.61538696289062
IMU24,1695914291676000000,9.840168952941895,-0.0694318488240242,-0.004788403399288654,0.1875,0,-0.0625,33.84000015258789,75.23999786376953,181.92308044433594
IMU24,1695914291774000000,9.832985877990723,-0.08379705995321274,0,0,0,0,33.959999084472656,75.23999786376953,181.07691955566406
IMU24,1695914291872000000,9.823409080505371,-0.06464344263076782,0.05506663769483566,0,0,0,34.31999969482422,74.87999725341797,181.23077392578125
IMU24,1695914291969000000,9.818620681762695,-0.05267243832349777,-0.002394201699644327,0,-0.0625,0.0625,34.040000915527344,75.16000366210938,181.07691955566406
IMU24,1695914292067000000,9.830592155456543,-0.05746084079146385,0.038307227194309235,0,0.125,0.125,34.119998931884766,75.23999786376953,180.92308044433594
IMU24,1695914292213000000,9.84495735168457,-0.10534487664699554,-0.026336219161748886,0,0,0.0625,33.959999084472656,75.19999694824219,181.38461303710938
IMU24,1695914292262000000,9.832985877990723,-0.05985504016280174,0.031124621629714966,0,0,0,34.040000915527344,75.23999786376953,181.07691955566406
IMU24,1695914292457000000,9.84735107421875,-0.08858545869588852,-0.0071826050989329815,0.0625,0,0,34.040000915527344,75.27999877929688,181.3076934814453
IMU24,1695914292505000000,9.84735107421875,-0.06464344263076782,0.023942016065120697,0,0.0625,0,34,75,181.23077392578125
IMU24,1695914292555000000,9.823409080505371,-0.09576806426048279,0.002394201699644327,0,0,-0.1875,34,74.83999633789062,180.92308044433594
IMU24,1695914292652000000,9.837774276733398,-0.10055647045373917,0,-0.125,0,0,34.040000915527344,75.16000366210938,181.07691955566406
IMU24,1695914292750000000,9.837774276733398,-0.07182604819536209,-0.035913024097681046,0,0.0625,0.0625,34.15999984741211,75.19999694824219,181.38461303710938
IMU24,1695914292847000000,9.837774276733398,-0.038307227194309235,0.019153613597154617,0,0.0625,-0.125,34.119998931884766,75.19999694824219,181.53846740722656
IMU24,1695914292993000000,9.823409080505371,-0.08619125932455063,-0.002394201699644327,0,0,0,34.279998779296875,75.16000366210938,181.53846740722656
IMU24,1695914293090000000,9.81143856048584,-0.05985504016280174,0.028730420395731926,0,-0.125,0,34.15999984741211,75.16000366210938,182.15383911132812
IMU24,1695914293188000000,9.828197479248047,-0.09816227108240128,-0.016759412363171577,-0.0625,0.125,-0.0625,34.279998779296875,75.4000015258789,181.61538696289062
IMU24,1695914293286000000,9.816226959228516,-0.05746084079146385,0.0071826050989329815,-0.125,0.125,0,34.279998779296875,75.16000366210938,181.07691955566406
IMU24,1695914293383000000,9.818620681762695,-0.08858545869588852,-0.004788403399288654,0,0,0,34.2400016784668,75.23999786376953,181.38461303710938
IMU24,1695914293480000000,9.830592155456543,-0.0694318488240242,0.002394201699644327,-0.0625,0,-0.0625,34.20000076293945,75.44000244140625,180.92308044433594
IMU24,1695914293578000000,9.856927871704102,-0.090979665517807,0.021547814831137657,-0.0625,0.125,0,34.52000045776367,75.19999694824219,181.15383911132812
IMU24,1695914293675000000,9.842562675476074,-0.06224924325942993,-0.002394201699644327,0.125,-0.0625,0,34.2400016784668,75.27999877929688,181.07691955566406
IMU24,1695914293773000000,9.821015357971191,-0.07422025501728058,-0.004788403399288654,0.125,0.0625,-0.125,34.040000915527344,75.55999755859375,180.84616088867188
IMU24,1695914293871000000,9.825803756713867,-0.07900865375995636,0.035913024097681046,0,-0.125,-0.0625,34.08000183105469,75.72000122070312,180.46153259277344
IMU24,1695914293968000000,9.830592155456543,-0.07900865375995636,0.014365210197865963,0,0,-0.0625,34,75.5199966430664,180.15383911132812
IMU24,1695914294066000000,9.818620681762695,-0.06224924325942993,0.031124621629714966,0,0.125,-0.0625,33.79999923706055,75.19999694824219,179.6923065185547
IMU24,1695914294163000000,9.816226959228516,-0.07182604819536209,0.014365210197865963,0,0,0,34.119998931884766,75.31999969482422,179.46153259277344
IMU24,1695914294310000000,9.801861763000488,-0.07661445438861847,0.043095629662275314,0.1875,0,0,33.959999084472656,75.16000366210938,180
IMU24,1695914294359000000,9.84735107421875,-0.05746084079146385,0.004788403399288654,0.125,0.0625,0,34,75.16000366210938,179.84616088867188
IMU24,1695914294456000000,9.859322547912598,-0.06224924325942993,0.021547814831137657,0,0,0,33.959999084472656,75.36000061035156,180.23077392578125
IMU24,1695914294553000000,9.835380554199219,-0.07422025501728058,0.021547814831137657,0.125,0,0.0625,34,75.36000061035156,179.84616088867188
IMU24,1695914294651000000,9.825803756713867,-0.05506663769483566,0.002394201699644327,0.125,0.0625,0,33.720001220703125,75.23999786376953,179.61538696289062
IMU24,1695914294748000000,9.84735107421875,-0.09816227108240128,0.014365210197865963,0.0625,0,0.0625,33.599998474121094,75.08000183105469,179.53846740722656
IMU24,1695914294894000000,9.835380554199219,-0.038307227194309235,0.021547814831137657,0.0625,0,-0.0625,34,75.19999694824219,179.61538696289062
IMU24,1695914295041000000,9.823409080505371,-0.09576806426048279,-0.026336219161748886,0,0,0.125,33.84000015258789,75.4800033569336,179.92308044433594
IMU24,1695914295089000000,9.81383228302002,-0.06464344263076782,0.011971008032560349,-0.0625,0.125,-0.125,33.79999923706055,75.5999984741211,180.3076934814453
IMU24,1695914295236000000,9.837774276733398,-0.05027823522686958,0.011971008032560349,-2.9375,-0.0625,0.1875,34.040000915527344,75.44000244140625,180.07691955566406
IMU24,1695914295382000000,9.90241813659668,-0.06464344263076782,0.325611412525177,-11,0.0625,0.125,34.040000915527344,75.19999694824219,180.3076934814453
IMU24,1695914295387000000,9.919177055358887,-0.15083470940589905,0.3208230137825012,-19.5625,0.25,0.125,33.84000015258789,75.44000244140625,180.92308044433594
IMU24,1695914295479000000,9.801861763000488,-0.17238251864910126,0.31364041566848755,-28.125,0.4375,0,33.91999816894531,75.08000183105469,183
IMU24,1695914295577000000,9.93833065032959,0.2585737705230713,-0.13168108463287354,-36.4375,0.4375,0.5625,34.08000183105469,74.5199966430664,185.53846740722656
IMU24,1695914295674000000,9.840168952941895,0.43095630407333374,0.28969839215278625,-43.5625,0.5,0.75,34.15999984741211,74.19999694824219,188.3076934814453
IMU24,1695914295772000000,10.103530883789062,0.42856210470199585,-0.13168108463287354,-52.375,0.625,0.75,34.31999969482422,73.55999755859375,191.6923065185547
IMU24,1695914295869000000,9.567230224609375,-0.24181437492370605,0.10773907601833344,-60.3125,0.625,0.8125,34.47999954223633,72.5199966430664,194.23077392578125
IMU24,1695914295968000000,9.761159896850586,0.10773907601833344,0.29448679089546204,-68.375,0.1875,1.1875,34.52000045776367,71.23999786376953,199.15383911132812
IMU24,1695914296065000000,10.022128105163574,0.17477671802043915,0.043095629662275314,-76,0.3125,1.375,34,69.08000183105469,203.61538696289062
IMU24,1695914296211000000,9.758766174316406,-0.3208230137825012,0.304063618183136,-80.625,0.25,1.4375,34.119998931884766,66.68000030517578,208.6923065185547
IMU24,1695914296260000000,9.93593692779541,0.7230489253997803,-0.08858545869588852,-79.5,0.25,1.375,34.040000915527344,63.599998474121094,213.53846740722656
IMU24,1695914296357000000,10.347739219665527,0.7182605266571045,-0.1628057062625885,-70.5,0,1.375,33.959999084472656,60.47999954223633,216.23077392578125
IMU24,1695914296455000000,9.366116523742676,-0.033518824726343155,-0.24181437492370605,-62.4375,0,1.125,33.68000030517578,57.279998779296875,218.92308044433594
IMU24,1695914296601000000,10.168174743652344,0.2059013396501541,-0.05985504016280174,-54,-0.0625,1.25,33.31999969482422,54.040000915527344,221.15383911132812
IMU24,1695914296650000000,10.474632263183594,0.3519476354122162,0,-46.375,0.0625,0.875,33.31999969482422,51.31999969482422,222.3076934814453
IMU24,1695914296795000000,9.404423713684082,-0.05027823522686958,0.12928688526153564,-38.1875,0.3125,0.625,33.15999984741211,48.84000015258789,222.3076934814453
IMU24,1695914296893000000,9.713275909423828,-0.31364041566848755,-0.06464344263076782,-29.5625,0.1875,0.5,33.08000183105469,46.47999954223633,223.15383911132812
IMU24,1695914296990000000,9.945513725280762,-0.07182604819536209,-0.047884032130241394,-22.5625,0.0625,0.25,32.91999816894531,45,222.76922607421875
IMU24,1695914297088000000,9.909600257873535,0.08379705995321274,-0.08858545869588852,-13.75,0,0.1875,32.7599983215332,44.119998931884766,222.15383911132812
IMU24,1695914297185000000,9.732429504394531,-0.16998831927776337,0.033518824726343155,-5.6875,-0.0625,0.0625,32.720001220703125,43.20000076293945,222.38461303710938
IMU24,1695914297283000000,9.856927871704102,0.035913024097681046,-0.17238251864910126,-0.4375,0.0625,-0.4375,32.79999923706055,43.040000915527344,222.38461303710938
IMU24,1695914297381000000,9.742006301879883,-0.325611412525177,-0.043095629662275314,-3.75,-0.0625,-0.25,32.68000030517578,42.47999954223633,221.76922607421875
IMU24,1695914297478000000,9.81383228302002,-0.22744916379451752,0.07422025501728058,-6.625,0.125,-0.5625,32.599998474121094,42.279998779296875,222.15383911132812
IMU24,1695914297576000000,10.046070098876953,-0.07900865375995636,0.10055647045373917,-9.9375,0,-1.375,32.599998474121094,42.08000183105469,221.6923065185547
IMU24,1695914297673000000,9.782708168029785,-0.17717091739177704,-0.11013327538967133,-12.5625,0.125,-1.0625,32.560001373291016,41.560001373291016,221.53846740722656
IMU24,1695914297771000000,9.526528358459473,-0.38307225704193115,0.019153613597154617,-16.1875,0.0625,-2.0625,32.400001525878906,40.959999084472656,221.46153259277344
IMU24,1695914297869000000,9.643844604492188,-0.19153612852096558,0.22744916379451752,-18.875,0,-2.9375,32.400001525878906,40.119998931884766,220.92308044433594
IMU24,1695914297966000000,9.57441234588623,-0.07900865375995636,0.40940847992897034,-22.25,0,-2.8125,32.400001525878906,39.119998931884766,220.92308044433594
IMU24,1695914298063000000,9.600749015808105,-0.090979665517807,0.14365209639072418,-25,-0.125,-2.9375,32.439998626708984,37.91999816894531,220.23077392578125
IMU24,1695914298161000000,10.02452278137207,0.19871874153614044,-0.011971008032560349,-28.1875,-0.5625,-2.75,32.599998474121094,36.52000045776367,220.92308044433594
IMU24,1695914298259000000,10.441113471984863,-0.26815059781074524,0.42616790533065796,-30.375,-0.125,-3.3125,32.560001373291016,34.68000030517578,219.92308044433594
IMU24,1695914298404000000,10.759542465209961,-0.021547814831137657,0.05746084079146385,-28.25,-1.0625,-3.4375,32.15999984741211,33.439998626708984,219.07691955566406
IMU24,1695914298454000000,8.892065048217773,0.833182156085968,-0.05985504016280174,-25.5625,-1.5625,-2.25,31.760000228881836,31.84000015258789,218.3076934814453
IMU24,1695914298599000000,10.113107681274414,0.31842881441116333,-0.3711012601852417,-22.5625,-0.4375,-2.5,31.559999465942383,31.360000610351562,217.6923065185547
IMU24,1695914298697000000,9.701305389404297,0.5961562395095825,0.17956513166427612,-19.1875,-1.5,-2.4375,30.84000015258789,30.1200008392334,217.53846740722656
IMU24,1695914298794000000,9.81143856048584,0.7876923680305481,0.1173158809542656,-16.25,-0.75,-2.0625,30.559999465942383,29.799999237060547,217.6923065185547
IMU24,1695914298892000000,9.421183586120605,0.667982280254364,-0.06464344263076782,-13.5,-0.375,-2,28.84000015258789,28.760000228881836,223.76922607421875
IMU24,1695914298989000000,10.034099578857422,0.7086836695671082,-0.22026655077934265,-10.625,-0.5625,-1.25,31.920000076293945,17.799999237060547,251.07691955566406
IMU24,1695914299087000000,9.835380554199219,0.6344634294509888,-0.0933738648891449,-7.3125,-0.375,-0.875,43.91999816894531,-3.4800000190734863,294.5384521484375
IMU24,1695914299184000000,9.950302124023438,0.8738836050033569,-0.033518824726343155,-4.25,-0.0625,-0.375,37.279998779296875,-51.08000183105469,447.69232177734375
IMU24,1695914299331000000,9.90241813659668,0.6823474764823914,-0.028730420395731926,-1,-0.125,-0.1875,-140.16000366210938,-119,778.3846435546875
IMU24,1695914299379000000,9.84735107421875,0.6823474764823914,-0.2849099934101105,3.375,-0.0625,0,651.0800170898438,-579.6799926757812,1558.076904296875
IMU24,1695914299477000000,9.758766174316406,0.5578489899635315,-0.3064578175544739,12.4375,0.625,0.4375,346.9200134277344,-126.23999786376953,345.0769348144531
IMU24,1695914299575000000,9.758766174316406,0.5889735817909241,-0.35673603415489197,20.4375,1.4375,1.125,357.5199890136719,1279.800048828125,2418.46142578125
IMU24,1695914299672000000,9.63187313079834,0.5841851830482483,-0.38067805767059326,28.875,1.1875,1.875,633.2000122070312,-633.5599975585938,1821.15380859375
IMU24,1695914299770000000,9.701305389404297,0.42856210470199585,-0.42856210470199585,36.75,1.75,2,-1263.280029296875,-643.760009765625,1556.3846435546875
IMU24,1695914299867000000,10.15141487121582,0.5602431893348694,-0.47405192255973816,44.5625,2,2.375,380.0799865722656,-521.760009765625,1732.6922607421875
IMU24,1695914299965000000,9.636661529541016,0.7350199222564697,-0.272938996553421,53.125,2.25,3.4375,87.68000030517578,-60.400001525878906,379
IMU24,1695914300062000000,9.933542251586914,0.3734954595565796,-0.6823474764823914,60.5625,2.5,4,23.360000610351562,-5.71999979019165,198.92308044433594
IMU24,1695914300160000000,9.928753852844238,0.7541735172271729,-0.6224924325942993,68.875,1.9375,4,14.520000457763672,4.320000171661377,170.84616088867188
IMU24,1695914300305000000,8.877699851989746,0,-0.4357447028160095,77.6875,1.5625,4.0625,12.4399995803833,9.4399995803833,165.15383911132812
IMU24,1695914300403000000,9.14585018157959,0.5363011956214905,-0.3663128614425659,81.3125,0.9375,4.125,12.399999618530273,14.920000076293945,164.07691955566406
IMU24,1695914300501000000,10.285490036010742,0.6847416758537292,0.014365210197865963,81.1875,-0.5625,4.0625,12.960000038146973,20.079999923706055,164
IMU24,1695914300598000000,9.040505409240723,0.2513911724090576,0.16519992053508759,81.375,-0.4375,3.875,13.5600004196167,24.68000030517578,163.23077392578125
IMU24,1695914300696000000,9.356539726257324,0.208295539021492,-0.12928688526153564,80.1875,-1.25,3.9375,14.5600004196167,29.31999969482422,161.38461303710938
IMU24,1695914300793000000,9.454702377319336,0.07182604819536209,0.38546645641326904,72,-1.625,3.4375,15.15999984741211,34.040000915527344,158.76922607421875
IMU24,1695914300891000000,9.921571731567383,-0.016759412363171577,0.6655880808830261,63.5625,-2.4375,3.5625,15.960000038146973,37.880001068115234,155.15383911132812
IMU24,1695914300988000000,9.157821655273438,0.0071826050989329815,0.8427590131759644,55.4375,-2.75,2.875,16.239999771118164,41.279998779296875,151.92308044433594
IMU24,1695914301086000000,9.979032516479492,-0.21787235140800476,0.3974374830722809,47.3125,-2.4375,3.375,17.079999923706055,43.959999084472656,148.46153259277344
IMU24,1695914301183000000,9.739612579345703,-0.06464344263076782,0.6727706789970398,39.1875,-2.4375,2.6875,17.559999465942383,46.08000183105469,144.84616088867188
IMU24,1695914301283000000,9.995792388916016,-0.4381389021873474,0.43335050344467163,31,-1.875,1.875,17.799999237060547,47.560001373291016,142.23077392578125
IMU24,1695914301378000000,9.864110946655273,-0.751779317855835,0.5602431893348694,23.5625,-1.375,1.125,18.31999969482422,48.880001068115234,140
IMU24,1695914301477000000,9.931148529052734,-0.5554547905921936,0.5674257874488831,15.0625,-0.8125,0.75,19.719999313354492,49.959999084472656,142.53846740722656
IMU24,1695914301574000000,9.871293067932129,-0.6967126727104187,0.4453215003013611,6.875,-0.375,0.4375,21.360000610351562,50.880001068115234,175.3076934814453
IMU24,1695914301671000000,10.103530883789062,-0.591367781162262,0.48602294921875,-1.75,0.125,0.4375,-52.959999084472656,53.15999984741211,276.6153869628906
IMU24,1695914301768000000,9.720458984375,-0.7637503147125244,0.5578489899635315,-9.6875,0.6875,-1,-323.0400085449219,69.63999938964844,1131
IMU24,1695914301866000000,9.799467086791992,-0.689530074596405,0.6416460275650024,-17.25,1.3125,-1.0625,691.7999877929688,-232.83999633789062,1492.769287109375
IMU24,1695914301964000000,9.907206535339355,-0.569819986820221,0.4692635238170624,-25.4375,1.25,-1.5,-1150,1279.8399658203125,2418.615478515625
IMU24,1695914302061000000,9.979032516479492,-0.5770025849342346,0.5363011956214905,-34,2.125,-2.25,-1260.1600341796875,-53.52000045776367,1266.6922607421875
IMU24,1695914302159000000,10.034099578857422,-0.325611412525177,0.3447650372982025,-42.1875,2.3125,-2.25,-1230.8800048828125,1280.1199951171875,2418.6923828125
IMU24,1695914302304000000,9.856927871704102,-0.4405331015586853,0.4405331015586853,-49.9375,2.1875,-3,75.23999786376953,1270.3199462890625,2414.3076171875
IMU24,1695914302402000000,10.539276123046875,-0.181959331035614,0.22026655077934265,-58.4375,2.125,-3.5,280.5199890136719,-31.239999771118164,482.23077392578125
IMU24,1695914302499000000,9.643844604492188,0.31603461503982544,0.8355763554573059,-66.75,2.4375,-3.5625,17.920000076293945,0.2800000011920929,102.30769348144531
IMU24,1695914302597000000,10.776301383972168,0.09816227108240128,0.27054479718208313,-74.75,2.0625,-4.25,-7.800000190734863,-6.519999980926514,23.230770111083984
IMU24,1695914302694000000,9.521739959716797,0.07422025501728058,0.2346317619085312,-81.875,1.625,-4,-12.760000228881836,-11.600000381469727,8.538461685180664
IMU24,1695914302792000000,10.077195167541504,0.629675030708313,0.16998831927776337,-81.4375,0.3125,-4.3125,-14.4399995803833,-16.520000457763672,7.07692289352417
IMU24,1695914302890000000,9.564835548400879,0.5937620401382446,0.07661445438861847,-80.9375,-0.4375,-4.625,-15.880000114440918,-21.84000015258789,8.076923370361328
IMU24,1695914302989000000,9.344569206237793,0.33039984107017517,-0.2992752194404602,-81,-1.1875,-4.25,-16.479999542236328,-26.639999389648438,8.384614944458008
IMU24,1695914303085000000,9.737217903137207,0.4644751250743866,-0.05027823522686958,-74.5625,-1.4375,-4.125,-17.15999984741211,-31.280000686645508,7.692307472229004
IMU24,1695914303182000000,9.651026725769043,0.8068459630012512,-0.2298433631658554,-66.375,-2.1875,-3.6875,-17.559999465942383,-35.08000183105469,6.384615421295166
IMU24,1695914303280000000,9.323020935058594,0.629675030708313,-0.38546645641326904,-57.6875,-2.25,-3.5,-17.719999313354492,-38.84000015258789,4.846153736114502
IMU24,1695914303377000000,9.63187313079834,0.5482721924781799,-0.6703764796257019,-49.8125,-2.25,-3.4375,-17.84000015258789,-41.84000015258789,3.153846263885498
IMU24,1695914303475000000,9.342174530029297,0.45010989904403687,-0.40701428055763245,-41.75,-2.3125,-2.8125,-18,-44.52000045776367,1.923076868057251
IMU24,1695914303572000000,9.406818389892578,0.608127236366272,-0.15083470940589905,-33.625,-1.9375,-1.6875,-18,-46.720001220703125,0
IMU24,1695914303670000000,9.957484245300293,0.5410895943641663,-0.3663128614425659,-25.125,-1.3125,-1.3125,-18.200000762939453,-48.47999954223633,-1.307692289352417
IMU24,1695914303767000000,9.816226959228516,0.5530605912208557,-0.16998831927776337,-17.4375,-0.9375,-0.8125,-18.079999923706055,-49.720001220703125,-3.230769157409668
IMU24,1695914303865000000,9.773131370544434,0.608127236366272,-0.2609679698944092,-9.4375,-0.4375,-0.4375,-18.079999923706055,-50.08000183105469,-4.307692527770996
IMU24,1695914303962000000,9.892841339111328,0.569819986820221,-0.272938996553421,-0.8125,-0.0625,-0.25,-18.1200008392334,-50.880001068115234,-4.769230842590332
IMU24,1695914304108000000,9.835380554199219,0.4596867263317108,-0.0694318488240242,7.1875,0.3125,0.875,-18,-50.959999084472656,-5
IMU24,1695914304206000000,9.718064308166504,0.545877993106842,-0.2537853717803955,15.5625,0.6875,1,-18.040000915527344,-50.599998474121094,-4.07692289352417
IMU24,1695914304303000000,9.785101890563965,0.5099649429321289,-0.3232172131538391,23.3125,1.4375,1.375,-18.15999984741211,-50.15999984741211,-3.076923131942749
IMU24,1695914304401000000,9.892841339111328,0.5243301391601562,-0.23942016065120697,31.25,1.625,1.875,-18.1200008392334,-49.2400016784668,-2
IMU24,1695914304498000000,9.658209800720215,0.40940847992897034,-0.2992752194404602,39.75,1.9375,2.0625,-17.959999084472656,-47.880001068115234,-0.9230769276618958
IMU24,1695914304596000000,10.022128105163574,0.569819986820221,-0.2561795711517334,47.75,2.3125,2.4375,-18.1200008392334,-46.20000076293945,0.7692307829856873
IMU24,1695914304742000000,9.804255485534668,0.5243301391601562,-0.7326257228851318,55.5625,2.5,2.5,-17.920000076293945,-43.79999923706055,2
IMU24,1695914304791000000,9.720458984375,0.7661445140838623,-0.304063618183136,63.8125,2.25,3.625,-17.959999084472656,-41.36000061035156,4.230769157409668
IMU24,1695914304888000000,10.304643630981445,0.7230489253997803,-0.629675030708313,72.6875,2.0625,4.5,-17.68000030517578,-38.2400016784668,6.461538314819336
IMU24,1695914304986000000,9.440337181091309,1.1348515748977661,-0.4908113479614258,80.0625,1.4375,5,-17.280000686645508,-34.400001525878906,7.692307472229004
IMU24,1695914305084000000,9.579200744628906,0.7254431247711182,0.028730420395731926,81.3125,1,5.375,-16.920000076293945,-30.399999618530273,8.615385055541992
IMU24,1695914305181000000,9.071630477905273,0.416591078042984,0.0933738648891449,81.3125,-0.375,5.25,-16.280000686645508,-25.68000030517578,9
IMU24,1695914305279000000,10.204087257385254,0.42616790533065796,0.021547814831137657,81.125,-0.6875,5.375,-15.520000457763672,-19.84000015258789,7.230769157409668
IMU24,1695914305376000000,8.860939979553223,0.09816227108240128,-0.035913024097681046,77.5,-1.375,5.1875,-15,-15.15999984741211,4.846153736114502
IMU24,1695914305474000000,9.387664794921875,0.4141968786716461,0.19153612852096558,69.25,-2.125,4.3125,-14.319999694824219,-10.760000228881836,1.923076868057251
IMU24,1695914305571000000,9.998186111450195,-0.06703764945268631,0.33279404044151306,61.5,-2.6875,3.625,-13.399999618530273,-7.360000133514404,-1.384615421295166
IMU24,1695914305669000000,10.15141487121582,-0.12210428714752197,0.0933738648891449,53.4375,-2.625,2.75,-12.880000114440918,-4.320000171661377,-5.307692527770996
IMU24,1695914305766000000,10.0580415725708,-0.1412578970193863,0.3471592366695404,44.5625,-2.375,2.1875,-12.5600004196167,-1.7599999904632568,-9.15384578704834
IMU24,1695914305864000000,9.940725326538086,-0.325611412525177,0.5937620401382446,36.1875,-1.6875,2.1875,-11.960000038146973,0.03999999910593033,-12.307692527770996
IMU24,1695914306010000000,9.840168952941895,-0.395043283700943,0.6344634294509888,28.5625,-1.75,1.125,-11.760000228881836,1.600000023841858,-15.307692527770996
IMU24,1695914306107000000,9.931148529052734,-0.5315127968788147,0.5626373887062073,20.0625,-1.25,1.375,-11.399999618530273,2.559999942779541,-18
IMU24,1695914306205000000,9.84735107421875,-0.6344634294509888,0.5961562395095825,12.125,-0.625,0.5625,-11.399999618530273,3.440000057220459,-20
IMU24,1695914306302000000,9.873687744140625,-0.6919242739677429,0.47884032130241394,4.1875,-0.0625,-0.125,-11.239999771118164,3.759999990463257,-21.30769157409668
IMU24,1695914306400000000,9.81143856048584,-0.7206547260284424,0.6009446382522583,1.25,0,-0.625,-11.239999771118164,4.039999961853027,-21.769229888916016
IMU24,1695914306497000000,10.072406768798828,-0.38067805767059326,-0.10534487664699554,2.625,-0.125,0.0625,-11.319999694824219,4.119999885559082,-22.230770111083984
IMU24,1695914306595000000,9.528923034667969,-0.6799532771110535,0.028730420395731926,4.25,-0.375,-1.125,-11.199999809265137,3.9200000762939453,-22
IMU24,1695914306692000000,10.407594680786133,-0.3064578175544739,0.009576806798577309,5.875,-0.5625,-1.5625,-11.199999809265137,3.759999990463257,-22.923076629638672
IMU24,1695914306838000000,9.876081466674805,-0.3423708379268646,0.08140285313129425,7.75,-0.6875,-1.875,-11.039999961853027,3.5999999046325684,-23.30769157409668
IMU24,1695914306887000000,10.524910926818848,-0.2609679698944092,0.08619125932455063,9.3125,-0.6875,-2.3125,-11.119999885559082,3.5999999046325684,-23.69230842590332
IMU24,1695914306985000000,9.50737476348877,-0.2849099934101105,0.0694318488240242,10.8125,-0.4375,-2.6875,-11.039999961853027,3.319999933242798,-24.538461685180664
IMU24,1695914307082000000,8.75080680847168,-0.5674257874488831,0.14604629576206207,12.9375,-0.875,-3.0625,-11.119999885559082,2.640000104904175,-25.384614944458008
IMU24,1695914307180000000,9.890446662902832,-0.48123452067375183,0.13168108463287354,13.4375,-0.75,-3.1875,-11.279999732971191,2.359999895095825,-26.69230842590332
IMU24,1695914307277000000,9.083600997924805,-0.8906430006027222,0.19871874153614044,14.0625,-1.375,-3.0625,-11.680000305175781,1.840000033378601,-28
IMU24,1695914307375000000,10.113107681274414,-0.6775590777397156,-0.22266075015068054,12.625,-0.6875,-2.25,-11.920000076293945,1.6399999856948853,-28.846153259277344
IMU24,1695914307521000000,8.667010307312012,-0.3687070608139038,0.27054479718208313,12.125,-0.5625,-3.375,-36.47999954223633,19.15999984741211,43.38461685180664
IMU24,1695914307619000000,9.658209800720215,0.1173158809542656,0.2561795711517334,10.6875,-0.0625,-3.75,-36.880001068115234,18.479999542236328,41.69230651855469
IMU24,1695914307667000000,9.610325813293457,-0.6823474764823914,0.12449848651885986,9,-0.625,-1.9375,-36.79999923706055,18.239999771118164,41.30769348144531
IMU24,1695914307813000000,9.323020935058594,-0.6799532771110535,0.15801730751991272,7.6875,-0.5,-1.5,-37,18,39.30769348144531
IMU24,1695914307911000000,10.0580415725708,-0.7015010714530945,0.07661445438861847,5.75,-0.3125,-1.5625,-37.119998931884766,17.360000610351562,39.153846740722656
IMU24,1695914308008000000,9.832985877990723,-0.5386953949928284,0.0933738648891449,4.0625,0.125,-1.5625,-37.52000045776367,17.360000610351562,37.846153259277344
IMU24,1695914308106000000,10.079588890075684,-0.42856210470199585,0.12689268589019775,2.75,0,-0.8125,-37.599998474121094,17.200000762939453,37.53845977783203
IMU24,1695914308203000000,9.761159896850586,-0.2346317619085312,0.0933738648891449,0.9375,0,0,-37.84000015258789,17.239999771118164,36.69230651855469
IMU24,1695914308301000000,9.864110946655273,-0.21308395266532898,0.11013327538967133,-0.0625,0.125,-0.25,-38.119998931884766,17.360000610351562,36.61538314819336
IMU24,1695914308399000000,9.780313491821289,-0.2849099934101105,0.028730420395731926,0,-0.0625,0.125,-38.119998931884766,17.479999542236328,36.769229888916016
IMU24,1695914308496000000,9.835380554199219,-0.07900865375995636,0.05746084079146385,-0.0625,0.0625,-0.0625,-38.15999984741211,17.280000686645508,36.69230651855469
IMU24,1695914308642000000,9.823409080505371,-0.016759412363171577,0.014365210197865963,-0.1875,0,-0.0625,-38.20000076293945,17.31999969482422,36.46154022216797
IMU24,1695914308691000000,9.866504669189453,-0.08140285313129425,0.026336219161748886,0.0625,0.125,-0.1875,-38.439998626708984,17.1200008392334,36.46154022216797
IMU24,1695914308789000000,9.794678688049316,-0.17477671802043915,0.031124621629714966,0,0,0,-38.040000915527344,17.360000610351562,36.53845977783203
IMU24,1695914308886000000,9.835380554199219,-0.035913024097681046,0.038307227194309235,-0.0625,0.125,0.0625,-38.08000183105469,17.639999389648438,36.769229888916016
IMU24,1695914308984000000,9.852139472961426,-0.014365210197865963,-0.038307227194309235,-0.125,0.0625,-0.1875,-38.040000915527344,17.399999618530273,37.153846740722656
IMU24,1695914309081000000,9.86889934539795,-0.040701426565647125,0.026336219161748886,-0.125,0.25,-0.125,-38.040000915527344,17.15999984741211,36.61538314819336
IMU24,1695914309179000000,9.799467086791992,-0.10055647045373917,0.004788403399288654,0,0.1875,0,-37.68000030517578,17.68000030517578,36.53845977783203
IMU24,1695914309276000000,9.849745750427246,-0.014365210197865963,-0.021547814831137657,0,0,-0.125,-37.47999954223633,17.440000534057617,36.846153259277344
IMU24,1695914309374000000,9.821015357971191,-0.031124621629714966,-0.014365210197865963,-0.0625,-0.0625,-0.125,-37.599998474121094,18,38.07692337036133
IMU24,1695914309520000000,9.81383228302002,-0.07182604819536209,0.023942016065120697,0.125,0.0625,0,-37.36000061035156,18.200000762939453,39.07692337036133
IMU24,1695914309617000000,9.835380554199219,-0.0694318488240242,0.023942016065120697,0,-0.125,0.0625,-36.959999084472656,19.1200008392334,40.61538314819336
IMU24,1695914309715000000,9.804255485534668,-0.043095629662275314,0.014365210197865963,0.125,0.0625,0.0625,-36.119998931884766,19.959999084472656,43.61538314819336
IMU24,1695914309812000000,9.84735107421875,-0.08379705995321274,0,0,-0.25,-0.0625,-35.720001220703125,20.959999084472656,47.153846740722656
IMU24,1695914309910000000,9.828197479248047,-0.040701426565647125,0.043095629662275314,0,-0.0625,0,-34.959999084472656,22.239999771118164,51.153846740722656
IMU24,1695914310011000000,9.84495735168457,-0.05027823522686958,0.033518824726343155,0.125,0,0.0625,-34.560001373291016,22.760000228881836,53.769229888916016
IMU24,1695914310105000000,9.821015357971191,-0.07422025501728058,0.016759412363171577,0,0,0,-33.7599983215332,22.84000015258789,53.92307662963867
IMU24,1695914310202000000,9.84735107421875,-0.08858545869588852,0.002394201699644327,0,0,0,-33.400001525878906,22.1200008392334,51.46154022216797
IMU24,1695914310300000000,9.832985877990723,-0.08140285313129425,0.009576806798577309,-0.0625,0,0,-32.84000015258789,21.520000457763672,49.61538314819336
IMU24,1695914310397000000,9.849745750427246,-0.06464344263076782,-0.002394201699644327,0.0625,0.125,0,-32.720001220703125,20.8799991607666,47.30769348144531
IMU24,1695914310495000000,9.787496566772461,-0.05985504016280174,0.016759412363171577,-0.0625,0,0,-32.31999969482422,20.399999618530273,47.230770111083984
IMU24,1695914310592000000,9.835380554199219,-0.09816227108240128,-0.016759412363171577,-0.0625,-0.0625,-0.0625,-32.720001220703125,20.1200008392334,45.92307662963867
IMU24,1695914310690000000,9.797073364257812,-0.08619125932455063,0.040701426565647125,0,0.25,0.0625,-33.08000183105469,19.8799991607666,43.846153259277344
IMU24,1695914310787000000,9.804255485534668,-0.05746084079146385,0.009576806798577309,0,0,0.0625,-33.79999923706055,19.959999084472656,42.30769348144531
IMU24,1695914310885000000,9.801861763000488,-0.07422025501728058,-0.016759412363171577,0,0.0625,0,-34.439998626708984,19.639999389648438,41.07692337036133
IMU24,1695914310983000000,9.823409080505371,-0.07900865375995636,0.040701426565647125,-0.0625,0,0,-35,19.440000534057617,39.69230651855469
IMU24,1695914311080000000,9.84495735168457,-0.035913024097681046,0.040701426565647125,-0.0625,0,-0.0625,-35.2400016784668,19.360000610351562,38.92307662963867
IMU24,1695914311177000000,9.828197479248047,-0.08379705995321274,0.016759412363171577,0,0,0,-35.52000045776367,19.200000762939453,39.846153259277344
IMU24,1695914311324000000,9.816226959228516,-0.09576806426048279,0,0,0,-0.125,-35.720001220703125,19.15999984741211,39
IMU24,1695914311373000000,9.835380554199219,-0.08379705995321274,0.019153613597154617,-0.1875,0.0625,0.0625,-36.040000915527344,19.079999923706055,37.38461685180664
IMU24,1695914311470000000,9.821015357971191,-0.07422025501728058,0.023942016065120697,0.125,0.125,0.0625,-35.880001068115234,19.239999771118164,38.230770111083984
IMU24,1695914311616000000,9.804255485534668,-0.047884032130241394,0.043095629662275314,0,0.0625,0.0625,-35.79999923706055,19.1200008392334,38.07692337036133
IMU24,1695914311713000000,9.825803756713867,-0.06224924325942993,0.016759412363171577,0,0,0,-35.79999923706055,19.31999969482422,37.769229888916016
IMU24,1695914311860000000,9.8784761428833,-0.07182604819536209,0.019153613597154617,-0.125,0,0,-35.68000030517578,19.1200008392334,38.153846740722656
IMU24,1695914311908000000,9.856927871704102,-0.08379705995321274,0.031124621629714966,0,0,-0.125,-36,19.040000915527344,37.846153259277344
IMU24,1695914312006000000,9.84495735168457,-0.08858545869588852,0,-0.0625,0,-0.0625,-36,19.239999771118164,38.07692337036133
IMU24,1695914312103000000,9.859322547912598,-0.08619125932455063,0.031124621629714966,0,-0.125,0.0625,-35.91999816894531,19.280000686645508,37.846153259277344
IMU24,1695914312201000000,9.873687744140625,-0.06224924325942993,0.021547814831137657,-0.0625,-0.125,-0.125,-36,18.959999084472656,38.230770111083984
IMU24,1695914312299000000,9.835380554199219,-0.11252747476100922,0.026336219161748886,-0.125,0,-0.0625,-36.279998779296875,19.079999923706055,37.846153259277344
IMU24,1695914312396000000,9.835380554199219,-0.08619125932455063,0,-0.125,-0.125,-0.125,-36.20000076293945,19.079999923706055,37.46154022216797
IMU24,1695914312493000000,9.828197479248047,-0.05746084079146385,0.0071826050989329815,0.0625,0,-0.0625,-36.560001373291016,19.079999923706055,36.92307662963867
IMU24,1695914312591000000,9.818620681762695,-0.08619125932455063,0.002394201699644327,-0.125,-0.0625,0,-36.63999938964844,18.84000015258789,37.30769348144531
IMU24,1695914312689000000,9.837774276733398,-0.06703764945268631,0.016759412363171577,-0.25,0,0,-37.279998779296875,18.600000381469727,36.30769348144531
IMU24,1695914312786000000,9.832985877990723,-0.08858545869588852,0.004788403399288654,-0.0625,0,0,-37.400001525878906,18.239999771118164,36.53845977783203
IMU24,1695914312884000000,9.825803756713867,-0.0933738648891449,0.021547814831137657,0,0.0625,0.125,-37.68000030517578,18.1200008392334,36.30769348144531
IMU24,1695914312981000000,9.885658264160156,-0.07422025501728058,0.014365210197865963,0,0.0625,0,-37.880001068115234,18.040000915527344,36.38461685180664
IMU24,1695914313128000000,9.809043884277344,-0.06224924325942993,-0.031124621629714966,-0.0625,-0.0625,0,-37.959999084472656,18.15999984741211,36.30769348144531
IMU24,1695914313176000000,9.837774276733398,-0.08140285313129425,0.016759412363171577,-0.375,-0.125,0.0625,-37.79999923706055,18,36.53845977783203
IMU24,1695914313322000000,9.93833065032959,0.035913024097681046,0.06703764945268631,0,0.0625,0.125,-37.7599983215332,18.040000915527344,36.61538314819336
IMU24,1695914313420000000,10.031704902648926,0.06224924325942993,0.0694318488240242,0,-0.125,0.0625,-37.47999954223633,17.639999389648438,36.846153259277344
IMU24,1695914313517000000,9.856927871704102,0.07900865375995636,0.09816227108240128,-0.1875,0.125,-0.125,-37.52000045776367,17.84000015258789,36.61538314819336
IMU24,1695914313615000000,10.005369186401367,0.22266075015068054,0.016759412363171577,0.0625,0.1875,0.0625,-37.560001373291016,17.84000015258789,36.46154022216797
IMU24,1695914313761000000,10.08198356628418,0.23942016065120697,0.07661445438861847,-0.1875,0.0625,-0.1875,-37.599998474121094,18.079999923706055,36.30769348144531
IMU24,1695914313859000000,10.065223693847656,-0.19153612852096558,0.11013327538967133,-0.0625,0.1875,0.5625,-37.36000061035156,17.68000030517578,36.153846740722656
IMU24,1695914313907000000,9.682151794433594,-0.12689268589019775,0.05985504016280174,-0.1875,0,-0.4375,-37.439998626708984,17.719999313354492,36.38461685180664
IMU24,1695914314005000000,9.277531623840332,-0.3423708379268646,-0.1364694982767105,0,0,0.1875,-37.560001373291016,17.84000015258789,36.230770111083984
IMU24,1695914314103000000,9.72285270690918,-0.10773907601833344,0.12210428714752197,-0.375,0.125,-0.5625,-37.560001373291016,17.799999237060547,36.92307662963867
IMU24,1695914314200000000,9.550470352172852,-0.40940847992897034,-0.08379705995321274,-0.5,0.3125,-0.1875,-37.7599983215332,17.84000015258789,36.69230651855469
IMU24,1695914314297000000,9.866504669189453,-0.3495534360408783,-0.021547814831137657,-0.1875,0,-0.4375,-37.84000015258789,17.520000457763672,36.30769348144531
IMU24,1695914314395000000,9.576807022094727,-0.08379705995321274,-0.08379705995321274,0,0,-0.25,-37.720001220703125,17.360000610351562,36.30769348144531
IMU24,1695914314492000000,10.381258010864258,-0.15801730751991272,0.026336219161748886,-0.25,0,0,-37.84000015258789,17.280000686645508,36.769229888916016
IMU24,1695914314590000000,9.84735107421875,-0.12449848651885986,0.1628057062625885,-0.0625,0,-0.0625,-37.63999938964844,17.440000534057617,36.69230651855469
IMU24,1695914314688000000,9.215282440185547,-0.19153612852096558,-0.06703764945268631,-0.125,0.0625,-0.0625,-37.68000030517578,17.440000534057617,36.53845977783203
IMU24,1695914314785000000,10.127472877502441,-0.14604629576206207,0.002394201699644327,-0.25,-0.125,-0.1875,-37.91999816894531,17.600000381469727,35.92307662963867
IMU24,1695914314883000000,9.787496566772461,-0.10534487664699554,-0.09576806426048279,-0.25,0.1875,-0.0625,-37.959999084472656,17.600000381469727,35.92307662963867
IMU24,1695914314981000000,9.923965454101562,-0.090979665517807,0.06703764945268631,0.1875,-0.1875,0.0625,-37.47999954223633,17.84000015258789,36.153846740722656
IMU24,1695914315078000000,9.976638793945312,-0.13407529890537262,-0.016759412363171577,-0.1875,0,-0.0625,-37.439998626708984,18.1200008392334,36.61538314819336
IMU24,1695914315223000000,9.84735107421875,-0.11013327538967133,0.002394201699644327,0,0,0,-37.560001373291016,18.31999969482422,35.846153259277344
IMU24,1695914315321000000,9.605537414550781,-0.3711012601852417,-0.09576806426048279,-0.3125,0,-9.75,-37.7599983215332,18.360000610351562,35.69230651855469
IMU24,1695914315418000000,9.351751327514648,-0.31364041566848755,0.043095629662275314,-0.25,0.0625,-20,-37.79999923706055,18.200000762939453,36.230770111083984
IMU24,1695914315516000000,9.481039047241211,-0.16519992053508759,-0.0071826050989329815,-0.125,0.25,-29.1875,-38.15999984741211,17.479999542236328,37.07692337036133
IMU24,1695914315614000000,9.121908187866211,0.7326257228851318,-0.12689268589019775,-0.375,0.3125,-37.25,-38.599998474121094,16.1200008392334,36.92307662963867
IMU24,1695914315711000000,9.957484245300293,1.843535304069519,-0.038307227194309235,-0.4375,0.25,-39.375,-39.08000183105469,15.5600004196167,36.53845977783203
IMU24,1695914315809000000,9.950302124023438,3.1914708614349365,-0.06703764945268631,-0.375,0.375,-30.8125,-40.79999923706055,13.359999656677246,35.53845977783203
IMU24,1695914315907000000,9.588777542114258,2.8131868839263916,0.208295539021492,-0.375,0,-21.3125,-40.560001373291016,13.720000267028809,36.46154022216797
IMU24,1695914316004000000,9.77791976928711,3.5410242080688477,-0.040701426565647125,0,0,-11.5,-38.959999084472656,12.479999542236328,39.69230651855469
IMU24,1695914316101000000,9.44991397857666,3.603273391723633,0.08858545869588852,-0.1875,0.0625,-2.625,-36.31999969482422,17.15999984741211,51.61538314819336
IMU24,1695914316199000000,9.155426979064941,2.8155810832977295,0.19871874153614044,-2.375,-0.75,1,-37.79999923706055,40.560001373291016,142.61538696289062
IMU24,1695914316297000000,9.320627212524414,2.920926094055176,0.16759411990642548,-6.4375,-2.5,4.6875,-116.5999984741211,56.959999084472656,162.23077392578125
IMU24,1695914316394000000,9.354146003723145,3.0406360626220703,0.181959331035614,-9.875,-3.125,7.3125,-123.12000274658203,40.119998931884766,51.38461685180664
IMU24,1695914316491000000,9.320627212524414,2.8395230770111084,0.12210428714752197,-13.6875,-4.25,10.9375,-104.5199966430664,34.7599983215332,11.84615421295166
IMU24,1695914316589000000,9.610325813293457,3.090914249420166,0.11252747476100922,-16.875,-4.875,14.1875,-99.76000213623047,43.63999938964844,18.30769157409668
IMU24,1695914316735000000,9.461884498596191,2.7485435009002686,0.208295539021492,-20.9375,-5.6875,17.5625,-104.80000305175781,47.08000183105469,32.92307662963867
IMU24,1695914316784000000,9.77791976928711,2.434903144836426,0.181959331035614,-24.8125,-5.75,20.25,-136,56.040000915527344,68.23076629638672
IMU24,1695914316930000000,10.139444351196289,2.229001760482788,0.2753331959247589,-28.875,-5.875,23.625,-177.60000610351562,61.84000015258789,125.76923370361328
IMU24,1695914316979000000,9.679757118225098,1.1540051698684692,0.021547814831137657,-30.1875,-4.875,24,-200.24000549316406,17.84000015258789,14.076923370361328
IMU24,1695914317125000000,10.034099578857422,1.5179238319396973,0.023942016065120697,-28.0625,-3.25,22.3125,-371.9599914550781,-79.4800033569336,-77.76923370361328
IMU24,1695914317222000000,9.849745750427246,1.0319008827209473,-0.028730420395731926,-24,-1.6875,19.5,-1245.9200439453125,283.67999267578125,333.6153869628906
IMU24,1695914317320000000,9.727641105651855,0.6272808313369751,-0.21787235140800476,-20.1875,-0.8125,16.5,-1254,308.6000061035156,2322.15380859375
IMU24,1695914317417000000,9.622296333312988,0.15562310814857483,0.026336219161748886,-16.5625,-0.0625,13.0625,-808.719970703125,-106.12000274658203,916.8461303710938
IMU24,1695914317515000000,9.425971984863281,-0.05506663769483566,-0.21308395266532898,-12.8125,-0.1875,10.125,-170.0399932861328,-235.47999572753906,1413.3846435546875
IMU24,1695914317612000000,9.643844604492188,-0.16998831927776337,-0.1628057062625885,-8.875,0.125,7,-170.39999389648438,-223.36000061035156,661.6153564453125
IMU24,1695914317710000000,9.835380554199219,-0.14365209639072418,-0.043095629662275314,-5.125,0,4,-39.08000183105469,-213.32000732421875,414.30767822265625
IMU24,1695914317808000000,9.758766174316406,-0.20350714027881622,-0.06224924325942993,-1.4375,-0.0625,1,-14.15999984741211,-113.5199966430664,-87.61538696289062
IMU24,1695914317905000000,8.731653213500977,-0.7613561153411865,0.10055647045373917,-1.625,0.25,-7.875,-4.079999923706055,-117.95999908447266,-131.76922607421875
IMU24,1695914318002000000,9.208099365234375,-0.3232172131538391,0.2298433631658554,-3.5,0.3125,-20.4375,-1.0399999618530273,-120.91999816894531,-140.92308044433594
IMU24,1695914318100000000,8.848969459533691,-0.24660277366638184,0.11252747476100922,-5.6875,0.125,-33.0625,-0.7200000286102295,-123.44000244140625,-142.84616088867188
IMU24,1695914318198000000,9.493009567260742,0.849941611289978,0.16519992053508759,-7.6875,-0.25,-45.4375,-1.9600000381469727,-125.91999816894531,-143.38461303710938
IMU24,1695914318295000000,9.093177795410156,2.9664158821105957,-0.22026655077934265,-7.5625,-1.125,-43.875,-3.759999990463257,-128.8000030517578,-143.76922607421875
IMU24,1695914318393000000,9.995792388916016,2.6455929279327393,-0.05267243832349777,-5,-1.1875,-31.375,-18.920000076293945,-170.27999877929688,3.153846263885498
IMU24,1695914318490000000,9.378087997436523,2.87064790725708,-0.24899697303771973,-2.5,-1.1875,-19.5,-25,-196.47999572753906,35.230770111083984
IMU24,1695914318588000000,9.907206535339355,3.3710360527038574,-0.08619125932455063,-0.8125,-0.5625,-6.875,-25.520000457763672,-198.16000366210938,35.46154022216797
IMU24,1695914318685000000,9.651026725769043,3.627215623855591,0.30885201692581177,0.1875,-0.3125,4.8125,-27.31999969482422,-207.1999969482422,43.846153259277344
IMU24,1695914318831000000,9.648633003234863,3.6296098232269287,-0.1173158809542656,-0.1875,-0.5625,15.75,-27.040000915527344,-206.8800048828125,44.30769348144531
